participant_id	run	trial_in_run	posture	stim_side	stim_segment	soa	tactor1side	tactor1segment	tactor2side	tactor2segment	response_correct	rt	session	trial
sub-23	1	1	crossed	same	same	50	right	lower	right	lower	0	1625	ses-1	1
sub-23	1	2	crossed	same	same	300	right	lower	right	lower	0	1119	ses-1	2
sub-23	1	3	crossed	different	same	50	right	lower	left	lower	0	680	ses-1	3
sub-23	1	4	crossed	different	different	50	right	lower	left	upper	0	896	ses-1	4
sub-23	1	5	crossed	different	different	800	right	lower	left	upper	0	1298	ses-1	5
sub-23	1	6	crossed	different	different	800	left	upper	right	lower	0	1145	ses-1	6
sub-23	1	7	crossed	same	same	100	right	lower	right	lower	0	990	ses-1	7
sub-23	1	8	crossed	same	same	800	right	lower	right	lower	0	678	ses-1	8
sub-23	1	9	crossed	different	different	100	left	lower	right	upper	1	2812	ses-1	9
sub-23	1	10	crossed	same	different	50	left	upper	left	lower	0	2608	ses-1	10
sub-23	1	11	crossed	different	same	50	right	lower	left	lower	1	2312	ses-1	11
sub-23	1	12	crossed	same	same	50	left	lower	left	lower	0	1507	ses-1	12
sub-23	1	13	crossed	different	same	800	right	lower	left	lower	0	1152	ses-1	13
sub-23	1	15	crossed	different	same	300	left	lower	right	lower	1	2521	ses-1	14
sub-23	1	16	crossed	same	different	50	right	lower	right	upper	0	1858	ses-1	15
sub-23	1	17	crossed	different	different	800	right	upper	left	lower	0	1039	ses-1	16
sub-23	1	18	crossed	different	same	50	right	lower	left	lower	0	2629	ses-1	17
sub-23	1	19	crossed	different	different	100	right	upper	left	lower	0	2364	ses-1	18
sub-23	1	20	crossed	same	different	50	right	upper	right	lower	0	1969	ses-1	19
sub-23	1	21	crossed	different	same	300	right	lower	left	lower	0	1642	ses-1	20
sub-23	1	22	crossed	different	different	100	right	lower	left	upper	0	2073	ses-1	21
sub-23	1	23	crossed	same	same	800	left	lower	left	lower	0	722	ses-1	22
sub-23	1	24	crossed	same	different	100	right	upper	right	lower	0	1058	ses-1	23
sub-23	1	25	crossed	same	different	300	right	upper	right	lower	0	2473	ses-1	24
sub-23	1	26	crossed	same	different	50	right	upper	right	lower	0	721	ses-1	25
sub-23	1	27	crossed	same	different	300	left	lower	left	upper	0	1875	ses-1	26
sub-23	1	28	crossed	same	different	800	left	lower	left	upper	0	1521	ses-1	27
sub-23	1	29	crossed	same	same	300	right	lower	right	lower	0	822	ses-1	28
sub-23	1	30	crossed	same	same	300	right	lower	right	lower	0	573	ses-1	29
sub-23	1	31	crossed	same	different	800	right	upper	right	lower	0	1057	ses-1	30
sub-23	1	32	crossed	same	different	300	right	lower	right	upper	0	758	ses-1	31
sub-23	1	33	crossed	different	same	100	right	lower	left	lower	0	781	ses-1	32
sub-23	1	34	crossed	same	same	300	right	lower	right	lower	0	728	ses-1	33
sub-23	1	35	crossed	different	different	800	right	upper	left	lower	0	943	ses-1	34
sub-23	1	36	crossed	different	different	100	left	upper	right	lower	0	1593	ses-1	35
sub-23	1	37	crossed	same	same	300	right	lower	right	lower	0	827	ses-1	36
sub-23	1	38	crossed	same	same	50	right	lower	right	lower	0	1673	ses-1	37
sub-23	1	39	crossed	same	different	800	right	upper	right	lower	0	1494	ses-1	38
sub-23	1	40	crossed	different	same	100	right	lower	left	lower	0	871	ses-1	39
sub-23	1	41	crossed	same	same	50	right	lower	right	lower	0	660	ses-1	40
sub-23	1	42	crossed	different	different	100	left	upper	right	lower	1	2233	ses-1	41
sub-23	1	43	crossed	same	different	300	left	upper	left	lower	0	1782	ses-1	42
sub-23	1	44	crossed	same	different	300	left	upper	left	lower	0	1791	ses-1	43
sub-23	1	45	crossed	different	different	300	right	upper	left	lower	0	1217	ses-1	44
sub-23	1	46	crossed	different	same	800	right	lower	left	lower	0	970	ses-1	45
sub-23	1	47	crossed	same	different	100	right	lower	right	upper	0	1708	ses-1	46
sub-23	1	48	crossed	different	same	800	right	lower	left	lower	0	1032	ses-1	47
sub-23	1	49	crossed	different	different	100	right	upper	left	lower	0	2303	ses-1	48
sub-23	1	50	crossed	different	same	50	right	lower	left	lower	0	1851	ses-1	49
sub-23	1	51	crossed	same	same	50	right	lower	right	lower	0	748	ses-1	50
sub-23	1	52	crossed	different	different	100	left	upper	right	lower	0	1687	ses-1	51
sub-23	1	53	crossed	same	same	50	right	lower	right	lower	0	919	ses-1	52
sub-23	1	54	crossed	same	same	100	left	lower	left	lower	0	2494	ses-1	53
sub-23	1	55	crossed	different	same	300	left	lower	right	lower	0	1469	ses-1	54
sub-23	1	56	crossed	different	same	50	left	lower	right	lower	0	730	ses-1	55
sub-23	1	57	crossed	same	different	100	right	lower	right	upper	0	813	ses-1	56
sub-23	1	58	crossed	same	same	800	right	lower	right	lower	0	1457	ses-1	57
sub-23	1	59	crossed	same	same	50	left	lower	left	lower	1	2899	ses-1	58
sub-23	1	60	crossed	same	same	100	left	lower	left	lower	0	2032	ses-1	59
sub-23	1	61	crossed	different	same	300	left	lower	right	lower	0	1045	ses-1	60
sub-23	1	62	crossed	same	same	800	left	lower	left	lower	0	1309	ses-1	61
sub-23	1	63	crossed	different	different	300	right	upper	left	lower	0	1142	ses-1	62
sub-23	1	64	crossed	same	same	100	left	lower	left	lower	0	1761	ses-1	63
sub-23	1	65	crossed	different	same	300	right	lower	left	lower	0	874	ses-1	64
sub-23	1	66	crossed	same	different	800	right	upper	right	lower	0	1012	ses-1	65
sub-23	1	67	crossed	same	same	100	right	lower	right	lower	0	812	ses-1	66
sub-23	1	68	crossed	different	different	50	left	lower	right	upper	0	829	ses-1	67
sub-23	1	69	crossed	different	same	100	left	lower	right	lower	0	2046	ses-1	68
sub-23	1	70	crossed	different	different	100	right	upper	left	lower	0	1201	ses-1	69
sub-23	1	72	crossed	different	different	100	left	lower	right	upper	0	1574	ses-1	70
sub-23	1	73	crossed	same	different	300	right	lower	right	upper	1	761	ses-1	71
sub-23	1	74	crossed	same	same	300	right	lower	right	lower	0	1242	ses-1	72
sub-23	1	75	crossed	different	different	50	left	upper	right	lower	0	1587	ses-1	73
sub-23	1	76	crossed	different	different	300	right	upper	left	lower	0	1003	ses-1	74
sub-23	1	77	crossed	same	different	300	right	lower	right	upper	1	1227	ses-1	75
sub-23	1	78	crossed	same	different	100	left	lower	left	upper	0	1885	ses-1	76
sub-23	1	80	crossed	same	same	800	left	lower	left	lower	0	638	ses-1	77
sub-23	1	81	crossed	same	different	100	right	lower	right	upper	0	1265	ses-1	78
sub-23	1	82	crossed	same	different	300	left	upper	left	lower	0	890	ses-1	79
sub-23	1	83	crossed	different	different	800	right	upper	left	lower	0	1148	ses-1	80
sub-23	1	84	crossed	different	different	800	left	lower	right	upper	0	646	ses-1	81
sub-23	1	85	crossed	different	different	800	left	lower	right	upper	0	638	ses-1	82
sub-23	1	86	crossed	different	same	300	right	lower	left	lower	0	2389	ses-1	83
sub-23	1	87	crossed	same	same	50	left	lower	left	lower	0	2827	ses-1	84
sub-23	1	88	crossed	different	same	800	left	lower	right	lower	0	763	ses-1	85
sub-23	1	89	crossed	different	different	300	left	lower	right	upper	0	1213	ses-1	86
sub-23	1	90	crossed	same	same	300	right	lower	right	lower	1	897	ses-1	87
sub-23	1	91	crossed	same	same	800	left	lower	left	lower	0	1655	ses-1	88
sub-23	1	92	crossed	same	same	100	right	lower	right	lower	0	700	ses-1	89
sub-23	1	93	crossed	different	different	50	right	lower	left	upper	0	1432	ses-1	90
sub-23	1	94	crossed	different	same	800	left	lower	right	lower	1	2852	ses-1	91
sub-23	1	95	crossed	different	different	100	right	lower	left	upper	0	2037	ses-1	92
sub-23	1	96	crossed	different	same	50	right	lower	left	lower	0	1364	ses-1	93
sub-23	1	97	crossed	same	same	800	left	lower	left	lower	0	771	ses-1	94
sub-23	1	98	crossed	same	different	50	left	lower	left	upper	0	881	ses-1	95
sub-23	1	99	crossed	same	different	300	right	upper	right	lower	0	894	ses-1	96
sub-23	1	100	crossed	different	same	800	right	lower	left	lower	0	1200	ses-1	97
sub-23	1	101	crossed	same	different	50	left	lower	left	upper	0	1357	ses-1	98
sub-23	1	102	crossed	different	same	100	left	lower	right	lower	0	2286	ses-1	99
sub-23	1	103	crossed	same	different	100	right	lower	right	upper	0	755	ses-1	100
sub-23	1	104	crossed	different	same	100	left	lower	right	lower	0	1941	ses-1	101
sub-23	1	105	crossed	different	same	50	right	lower	left	lower	1	1808	ses-1	102
sub-23	1	106	crossed	different	same	300	right	lower	left	lower	0	707	ses-1	103
sub-23	1	107	crossed	same	different	100	left	upper	left	lower	0	996	ses-1	104
sub-23	1	108	crossed	different	same	50	left	lower	right	lower	0	2371	ses-1	105
sub-23	1	109	crossed	same	same	300	right	lower	right	lower	0	1597	ses-1	106
sub-23	1	110	crossed	same	same	300	left	lower	left	lower	0	1145	ses-1	107
sub-23	1	111	crossed	same	same	800	left	lower	left	lower	0	815	ses-1	108
sub-23	1	112	crossed	different	same	800	left	lower	right	lower	0	596	ses-1	109
sub-23	1	113	crossed	different	different	50	left	upper	right	lower	1	2690	ses-1	110
sub-23	1	114	crossed	same	different	800	left	lower	left	upper	0	755	ses-1	111
sub-23	1	115	crossed	same	different	100	left	upper	left	lower	0	749	ses-1	112
sub-23	1	116	crossed	different	different	800	left	upper	right	lower	0	662	ses-1	113
sub-23	1	117	crossed	different	same	100	right	lower	left	lower	1	1684	ses-1	114
sub-23	1	118	crossed	same	same	300	left	lower	left	lower	0	2354	ses-1	115
sub-23	1	119	crossed	same	same	800	right	lower	right	lower	0	1796	ses-1	116
sub-23	1	120	crossed	different	same	300	right	lower	left	lower	0	825	ses-1	117
sub-23	1	121	crossed	same	same	300	left	lower	left	lower	0	955	ses-1	118
sub-23	1	122	crossed	different	same	100	right	lower	left	lower	0	1802	ses-1	119
sub-23	1	124	crossed	same	same	50	right	lower	right	lower	0	1157	ses-1	120
sub-23	1	125	crossed	same	same	800	right	lower	right	lower	0	1519	ses-1	121
sub-23	1	126	crossed	different	different	50	left	lower	right	upper	0	2207	ses-1	122
sub-23	1	127	crossed	same	same	800	right	lower	right	lower	0	1748	ses-1	123
sub-23	1	128	crossed	same	different	100	left	upper	left	lower	0	1903	ses-1	124
sub-23	1	129	crossed	different	different	100	right	lower	left	upper	0	1351	ses-1	125
sub-23	1	130	crossed	different	different	800	right	lower	left	upper	0	853	ses-1	126
sub-23	1	131	crossed	same	same	100	left	lower	left	lower	0	1272	ses-1	127
sub-23	1	132	crossed	different	different	800	left	upper	right	lower	0	1824	ses-1	128
sub-23	1	133	crossed	different	different	50	right	upper	left	lower	0	2848	ses-1	129
sub-23	1	134	crossed	same	different	50	right	upper	right	lower	0	1871	ses-1	130
sub-23	1	135	crossed	same	same	50	left	lower	left	lower	0	1802	ses-1	131
sub-23	1	136	crossed	same	different	300	right	upper	right	lower	1	1622	ses-1	132
sub-23	1	138	crossed	different	same	100	left	lower	right	lower	0	2263	ses-1	133
sub-23	1	139	crossed	different	same	800	left	lower	right	lower	0	2160	ses-1	134
sub-23	1	140	crossed	same	different	800	right	lower	right	upper	0	2403	ses-1	135
sub-23	1	141	crossed	different	different	50	left	upper	right	lower	0	2398	ses-1	136
sub-23	1	142	crossed	different	different	300	right	lower	left	upper	0	910	ses-1	137
sub-23	1	143	crossed	different	same	100	right	lower	left	lower	1	2702	ses-1	138
sub-23	1	144	crossed	different	same	50	right	lower	left	lower	0	1663	ses-1	139
sub-23	1	145	crossed	different	different	50	left	upper	right	lower	0	1958	ses-1	140
sub-23	1	146	crossed	different	different	800	right	upper	left	lower	0	2428	ses-1	141
sub-23	1	147	crossed	same	different	300	right	upper	right	lower	0	1878	ses-1	142
sub-23	1	148	crossed	same	same	100	right	lower	right	lower	0	743	ses-1	143
sub-23	1	149	crossed	same	different	300	left	upper	left	lower	0	1529	ses-1	144
sub-23	1	150	crossed	different	different	300	left	lower	right	upper	0	1967	ses-1	145
sub-23	1	151	crossed	different	different	300	left	lower	right	upper	0	774	ses-1	146
sub-23	1	152	crossed	different	same	800	left	lower	right	lower	0	609	ses-1	147
sub-23	1	153	crossed	same	same	50	left	lower	left	lower	0	1757	ses-1	148
sub-23	1	154	crossed	same	same	50	right	lower	right	lower	0	2278	ses-1	149
sub-23	1	155	crossed	different	different	300	left	upper	right	lower	1	2445	ses-1	150
sub-23	1	156	crossed	different	different	100	right	lower	left	upper	0	2872	ses-1	151
sub-23	1	157	crossed	same	different	50	left	lower	left	upper	0	1067	ses-1	152
sub-23	1	159	crossed	same	same	50	right	lower	right	lower	0	956	ses-1	153
sub-23	1	160	crossed	different	different	100	left	lower	right	upper	0	1350	ses-1	154
sub-23	1	161	crossed	different	different	300	left	upper	right	lower	0	1285	ses-1	155
sub-23	1	162	crossed	same	different	300	right	lower	right	upper	0	1004	ses-1	156
sub-23	1	163	crossed	same	same	100	left	lower	left	lower	0	2656	ses-1	157
sub-23	1	164	crossed	different	different	50	right	lower	left	upper	0	2953	ses-1	158
sub-23	1	165	crossed	different	same	100	left	lower	right	lower	0	2547	ses-1	159
sub-23	1	166	crossed	same	different	50	left	lower	left	upper	0	1259	ses-1	160
sub-23	1	167	crossed	different	same	300	left	lower	right	lower	0	1627	ses-1	161
sub-23	1	168	crossed	same	different	800	left	upper	left	lower	0	1425	ses-1	162
sub-23	1	169	crossed	same	same	100	left	lower	left	lower	0	2404	ses-1	163
sub-23	1	170	crossed	different	same	100	right	lower	left	lower	0	1738	ses-1	164
sub-23	1	171	crossed	same	same	100	right	lower	right	lower	0	2244	ses-1	165
sub-23	1	172	crossed	same	different	50	right	upper	right	lower	0	1199	ses-1	166
sub-23	1	173	crossed	same	different	50	left	upper	left	lower	0	1293	ses-1	167
sub-23	1	174	crossed	different	different	300	right	lower	left	upper	0	721	ses-1	168
sub-23	1	176	crossed	different	different	50	right	upper	left	lower	0	1977	ses-1	169
sub-23	1	177	crossed	same	different	800	right	upper	right	lower	0	2207	ses-1	170
sub-23	1	178	crossed	same	same	800	right	lower	right	lower	0	1047	ses-1	171
sub-23	1	179	crossed	same	same	50	left	lower	left	lower	1	976	ses-1	172
sub-23	1	180	crossed	same	different	100	right	upper	right	lower	0	2418	ses-1	173
sub-23	1	181	crossed	different	different	100	right	lower	left	upper	0	1887	ses-1	174
sub-23	1	183	crossed	same	different	50	left	upper	left	lower	0	980	ses-1	175
sub-23	1	184	crossed	different	different	100	left	upper	right	lower	0	1603	ses-1	176
sub-23	1	185	crossed	same	different	300	left	upper	left	lower	0	1291	ses-1	177
sub-23	1	186	crossed	different	different	800	left	upper	right	lower	0	1187	ses-1	178
sub-23	1	187	crossed	different	same	100	left	lower	right	lower	0	2412	ses-1	179
sub-23	1	188	crossed	different	same	100	right	lower	left	lower	0	1713	ses-1	180
sub-23	1	189	crossed	different	different	300	left	upper	right	lower	0	2228	ses-1	181
sub-23	1	190	crossed	same	same	100	left	lower	left	lower	0	1360	ses-1	182
sub-23	1	191	crossed	same	different	50	right	lower	right	upper	0	2395	ses-1	183
sub-23	1	193	crossed	same	different	300	left	lower	left	upper	0	1243	ses-1	184
sub-23	1	194	crossed	different	same	100	right	lower	left	lower	0	1645	ses-1	185
sub-23	1	195	crossed	different	same	800	left	lower	right	lower	0	1588	ses-1	186
sub-23	1	196	crossed	different	same	800	left	lower	right	lower	0	827	ses-1	187
sub-23	1	197	crossed	same	same	800	right	lower	right	lower	0	1185	ses-1	188
sub-23	1	198	crossed	same	different	800	left	lower	left	upper	0	1511	ses-1	189
sub-23	1	199	crossed	different	same	50	right	lower	left	lower	0	2414	ses-1	190
sub-23	1	200	crossed	different	same	50	left	lower	right	lower	0	1800	ses-1	191
sub-23	1	201	crossed	same	same	100	right	lower	right	lower	0	1198	ses-1	192
sub-23	1	202	crossed	same	different	300	right	lower	right	upper	0	818	ses-1	193
sub-23	1	203	crossed	different	same	300	right	lower	left	lower	0	1171	ses-1	194
sub-23	1	204	crossed	different	same	800	left	lower	right	lower	0	1721	ses-1	195
sub-23	1	205	crossed	different	different	50	right	lower	left	upper	1	1834	ses-1	196
sub-23	1	206	crossed	same	same	50	right	lower	right	lower	0	1551	ses-1	197
sub-23	1	207	crossed	same	same	300	left	lower	left	lower	0	1727	ses-1	198
sub-23	1	208	crossed	different	different	100	right	lower	left	upper	0	1618	ses-1	199
sub-23	1	209	crossed	different	different	300	left	upper	right	lower	1	1664	ses-1	200
sub-23	1	210	crossed	same	different	50	right	lower	right	upper	0	1122	ses-1	201
sub-23	1	212	crossed	same	different	100	right	upper	right	lower	0	1145	ses-1	202
sub-23	1	213	crossed	different	same	300	left	lower	right	lower	0	1147	ses-1	203
sub-23	1	214	crossed	different	same	300	right	lower	left	lower	0	1194	ses-1	204
sub-23	1	215	crossed	same	different	800	right	lower	right	upper	0	1756	ses-1	205
sub-23	1	216	crossed	same	different	800	left	lower	left	upper	0	937	ses-1	206
sub-23	1	217	crossed	same	different	300	right	lower	right	upper	1	1530	ses-1	207
sub-23	1	218	crossed	same	different	100	left	upper	left	lower	0	2173	ses-1	208
sub-23	1	219	crossed	different	different	300	right	lower	left	upper	0	2182	ses-1	209
sub-23	1	220	crossed	same	same	800	right	lower	right	lower	0	1885	ses-1	210
sub-23	1	221	crossed	different	different	50	left	lower	right	upper	0	2002	ses-1	211
sub-23	1	222	crossed	same	different	300	left	lower	left	upper	0	1329	ses-1	212
sub-23	1	223	crossed	same	same	100	right	lower	right	lower	1	1671	ses-1	213
sub-23	1	224	crossed	same	same	300	right	lower	right	lower	0	2102	ses-1	214
sub-23	1	225	crossed	different	same	100	left	lower	right	lower	0	2607	ses-1	215
sub-23	1	226	crossed	different	different	100	left	lower	right	upper	0	2337	ses-1	216
sub-23	1	227	crossed	different	different	800	left	upper	right	lower	0	1542	ses-1	217
sub-23	1	228	crossed	same	different	100	right	upper	right	lower	0	1748	ses-1	218
sub-23	1	229	crossed	same	same	300	left	lower	left	lower	0	2125	ses-1	219
sub-23	1	230	crossed	different	different	800	right	lower	left	upper	0	1756	ses-1	220
sub-23	1	231	crossed	same	same	300	left	lower	left	lower	0	1684	ses-1	221
sub-23	1	232	crossed	different	same	800	left	lower	right	lower	0	844	ses-1	222
sub-23	1	233	crossed	same	same	50	left	lower	left	lower	0	2097	ses-1	223
sub-23	1	234	crossed	different	same	100	right	lower	left	lower	0	2448	ses-1	224
sub-23	1	235	crossed	same	different	100	left	lower	left	upper	0	1572	ses-1	225
sub-23	1	236	crossed	same	different	50	left	upper	left	lower	0	2532	ses-1	226
sub-23	1	237	crossed	same	different	50	right	upper	right	lower	0	1631	ses-1	227
sub-23	1	238	crossed	different	same	50	right	lower	left	lower	0	1345	ses-1	228
sub-23	1	239	crossed	same	different	100	right	lower	right	upper	0	1082	ses-1	229
sub-23	1	241	crossed	different	different	800	right	upper	left	lower	0	1227	ses-1	230
sub-23	1	242	crossed	same	different	800	right	lower	right	upper	0	1978	ses-1	231
sub-23	1	243	crossed	same	same	100	right	lower	right	lower	0	1529	ses-1	232
sub-23	1	244	crossed	same	different	800	right	lower	right	upper	0	1888	ses-1	233
sub-23	1	245	crossed	different	different	800	right	lower	left	upper	0	2363	ses-1	234
sub-23	1	246	crossed	different	different	800	left	lower	right	upper	0	1568	ses-1	235
sub-23	1	247	crossed	different	same	50	right	lower	left	lower	0	2553	ses-1	236
sub-23	1	248	crossed	same	same	100	right	lower	right	lower	0	1507	ses-1	237
sub-23	1	249	crossed	same	different	800	left	upper	left	lower	0	1250	ses-1	238
sub-23	1	250	crossed	different	different	300	right	lower	left	upper	0	1739	ses-1	239
sub-23	1	251	crossed	same	same	800	left	lower	left	lower	0	767	ses-1	240
sub-23	1	252	crossed	different	same	50	left	lower	right	lower	0	2049	ses-1	241
sub-23	1	253	crossed	same	same	800	left	lower	left	lower	0	879	ses-1	242
sub-23	1	254	crossed	same	different	50	right	upper	right	lower	0	1714	ses-1	243
sub-23	1	255	crossed	different	different	100	left	upper	right	lower	0	1437	ses-1	244
sub-23	1	256	crossed	different	different	300	right	lower	left	upper	0	926	ses-1	245
sub-23	1	257	crossed	different	different	50	left	upper	right	lower	0	902	ses-1	246
sub-23	1	258	crossed	different	same	300	left	lower	right	lower	0	2196	ses-1	247
sub-23	1	259	crossed	different	same	100	left	lower	right	lower	0	1234	ses-1	248
sub-23	1	260	crossed	different	same	300	left	lower	right	lower	0	2008	ses-1	249
sub-23	1	261	crossed	same	same	50	left	lower	left	lower	0	2203	ses-1	250
sub-23	1	262	crossed	same	different	100	right	upper	right	lower	0	1237	ses-1	251
sub-23	1	263	crossed	different	same	300	left	lower	right	lower	0	983	ses-1	252
sub-23	1	264	crossed	different	different	300	left	upper	right	lower	0	1336	ses-1	253
sub-23	1	265	crossed	different	same	100	left	lower	right	lower	0	1795	ses-1	254
sub-23	1	267	crossed	different	same	50	left	lower	right	lower	0	1804	ses-1	255
sub-23	1	268	crossed	same	different	300	left	upper	left	lower	0	1020	ses-1	256
sub-23	1	269	crossed	same	different	800	right	lower	right	upper	1	875	ses-1	257
sub-23	1	270	crossed	same	same	50	right	lower	right	lower	0	1564	ses-1	258
sub-23	1	271	crossed	same	different	50	left	upper	left	lower	0	2250	ses-1	259
sub-23	1	272	crossed	same	same	800	left	lower	left	lower	0	888	ses-1	260
sub-23	1	273	crossed	same	different	800	left	upper	left	lower	0	830	ses-1	261
sub-23	1	274	crossed	different	same	300	right	lower	left	lower	0	1666	ses-1	262
sub-23	1	275	crossed	same	same	800	left	lower	left	lower	0	1645	ses-1	263
sub-23	1	276	crossed	different	different	50	right	upper	left	lower	0	1531	ses-1	264
sub-23	1	277	crossed	same	different	800	left	upper	left	lower	0	749	ses-1	265
sub-23	1	278	crossed	same	different	800	left	upper	left	lower	0	848	ses-1	266
sub-23	1	279	crossed	different	same	800	right	lower	left	lower	0	1610	ses-1	267
sub-23	1	280	crossed	same	same	100	left	lower	left	lower	0	1628	ses-1	268
sub-23	1	281	crossed	same	different	800	right	lower	right	upper	1	1996	ses-1	269
sub-23	1	282	crossed	different	different	800	left	lower	right	upper	1	2674	ses-1	270
sub-23	1	283	crossed	different	different	100	left	lower	right	upper	0	2284	ses-1	271
sub-23	1	284	crossed	same	different	800	left	lower	left	upper	0	966	ses-1	272
sub-23	1	285	crossed	different	same	800	left	lower	right	lower	0	1071	ses-1	273
sub-23	1	286	crossed	different	different	300	left	lower	right	upper	0	2611	ses-1	274
sub-23	1	287	crossed	same	different	50	right	lower	right	upper	0	1475	ses-1	275
sub-23	1	288	crossed	different	different	50	right	lower	left	upper	0	746	ses-1	276
sub-23	1	289	crossed	same	same	300	left	lower	left	lower	0	1568	ses-1	277
sub-23	1	290	crossed	same	same	300	left	lower	left	lower	0	694	ses-1	278
sub-23	1	291	crossed	same	same	300	right	lower	right	lower	1	2519	ses-1	279
sub-23	1	292	crossed	same	different	800	right	upper	right	lower	0	1405	ses-1	280
sub-23	1	293	crossed	same	different	300	right	upper	right	lower	0	936	ses-1	281
sub-23	1	294	crossed	different	different	100	left	upper	right	lower	0	1626	ses-1	282
sub-23	1	296	crossed	same	same	50	left	lower	left	lower	0	1337	ses-1	283
sub-23	1	297	crossed	different	different	50	right	upper	left	lower	0	2032	ses-1	284
sub-23	1	298	crossed	same	same	100	left	lower	left	lower	0	1220	ses-1	285
sub-23	1	299	crossed	same	different	100	left	lower	left	upper	0	1000	ses-1	286
sub-23	1	300	crossed	different	different	300	left	lower	right	upper	0	2187	ses-1	287
sub-23	1	301	crossed	same	same	800	right	lower	right	lower	0	1747	ses-1	288
sub-23	1	302	crossed	same	different	300	left	lower	left	upper	0	1409	ses-1	289
sub-23	1	303	crossed	different	same	100	right	lower	left	lower	0	1813	ses-1	290
sub-23	1	304	crossed	different	different	300	left	lower	right	upper	0	1382	ses-1	291
sub-23	1	305	crossed	different	same	50	left	lower	right	lower	0	940	ses-1	292
sub-23	1	306	crossed	same	different	50	right	lower	right	upper	0	1829	ses-1	293
sub-23	1	307	crossed	different	different	800	right	lower	left	upper	0	1839	ses-1	294
sub-23	1	308	crossed	different	same	800	right	lower	left	lower	0	1607	ses-1	295
sub-23	1	309	crossed	different	different	50	left	lower	right	upper	1	2147	ses-1	296
sub-23	1	310	crossed	same	same	800	left	lower	left	lower	0	1086	ses-1	297
sub-23	1	311	crossed	different	same	800	left	lower	right	lower	0	1253	ses-1	298
sub-23	1	312	crossed	different	different	800	left	upper	right	lower	0	2498	ses-1	299
sub-23	1	313	crossed	same	different	50	left	upper	left	lower	0	944	ses-1	300
sub-23	1	314	crossed	same	different	50	left	lower	left	upper	0	915	ses-1	301
sub-23	1	315	crossed	different	different	100	left	lower	right	upper	0	1948	ses-1	302
sub-23	1	316	crossed	different	same	300	right	lower	left	lower	0	2006	ses-1	303
sub-23	1	318	crossed	different	same	50	left	lower	right	lower	0	1469	ses-1	304
sub-23	1	319	crossed	different	different	50	left	lower	right	upper	0	2415	ses-1	305
sub-23	1	320	crossed	different	different	800	right	lower	left	upper	0	1834	ses-1	306
sub-23	1	321	crossed	different	different	300	right	upper	left	lower	0	1114	ses-1	307
sub-23	1	322	crossed	same	same	300	left	lower	left	lower	1	844	ses-1	308
sub-23	1	324	crossed	same	different	100	left	lower	left	upper	0	1809	ses-1	309
sub-23	1	325	crossed	same	same	100	right	lower	right	lower	0	1101	ses-1	310
sub-23	1	326	crossed	same	different	800	left	lower	left	upper	0	1359	ses-1	311
sub-23	1	327	crossed	different	same	100	right	lower	left	lower	0	1474	ses-1	312
sub-23	1	328	crossed	same	different	100	left	lower	left	upper	0	2840	ses-1	313
sub-23	1	329	crossed	same	same	100	left	lower	left	lower	0	754	ses-1	314
sub-23	1	330	crossed	different	same	300	right	lower	left	lower	0	949	ses-1	315
sub-23	1	331	crossed	different	same	100	left	lower	right	lower	0	1982	ses-1	316
sub-23	1	333	crossed	same	different	100	left	upper	left	lower	0	1042	ses-1	317
sub-23	1	334	crossed	same	different	100	left	upper	left	lower	0	754	ses-1	318
sub-23	1	335	crossed	different	different	800	left	lower	right	upper	0	668	ses-1	319
sub-23	1	336	crossed	different	different	50	left	upper	right	lower	1	2195	ses-1	320
sub-23	1	337	crossed	different	same	800	right	lower	left	lower	0	1513	ses-1	321
sub-23	1	338	crossed	different	different	100	right	upper	left	lower	0	2210	ses-1	322
sub-23	1	339	crossed	same	different	50	right	lower	right	upper	0	1079	ses-1	323
sub-23	1	340	crossed	different	different	50	left	lower	right	upper	0	1697	ses-1	324
sub-23	1	341	crossed	different	same	50	right	lower	left	lower	1	1836	ses-1	325
sub-23	1	342	crossed	different	same	800	right	lower	left	lower	0	1172	ses-1	326
sub-23	1	343	crossed	same	different	800	right	upper	right	lower	0	1243	ses-1	327
sub-23	1	344	crossed	different	same	50	left	lower	right	lower	1	2015	ses-1	328
sub-23	1	345	crossed	different	same	800	right	lower	left	lower	0	1232	ses-1	329
sub-23	1	346	crossed	different	same	800	right	lower	left	lower	0	1581	ses-1	330
sub-23	1	347	crossed	different	same	300	left	lower	right	lower	0	1862	ses-1	331
sub-23	1	348	crossed	different	same	300	left	lower	right	lower	0	2168	ses-1	332
sub-23	1	349	crossed	different	same	50	left	lower	right	lower	0	2799	ses-1	333
sub-23	1	350	crossed	different	different	300	right	lower	left	upper	0	1856	ses-1	334
sub-23	1	351	crossed	same	same	100	right	lower	right	lower	0	823	ses-1	335
sub-23	1	352	crossed	different	different	100	right	upper	left	lower	0	965	ses-1	336
sub-23	1	353	crossed	different	same	300	left	lower	right	lower	0	2429	ses-1	337
sub-23	1	354	crossed	same	same	300	left	lower	left	lower	0	1408	ses-1	338
sub-23	1	355	crossed	same	same	100	left	lower	left	lower	0	885	ses-1	339
sub-23	1	356	crossed	same	different	300	left	lower	left	upper	0	1520	ses-1	340
sub-23	1	357	crossed	different	same	800	left	lower	right	lower	0	2016	ses-1	341
sub-23	1	358	crossed	same	different	300	right	upper	right	lower	1	1189	ses-1	342
sub-23	1	359	crossed	different	different	300	right	upper	left	lower	0	1890	ses-1	343
sub-23	1	360	crossed	same	different	50	left	lower	left	upper	0	962	ses-1	344
sub-23	1	361	crossed	same	same	800	left	lower	left	lower	0	1603	ses-1	345
sub-23	1	362	crossed	same	different	100	right	lower	right	upper	0	1887	ses-1	346
sub-23	1	363	crossed	same	same	50	left	lower	left	lower	0	1047	ses-1	347
sub-23	1	364	crossed	same	same	300	right	lower	right	lower	0	1119	ses-1	348
sub-23	1	365	crossed	different	different	50	right	lower	left	upper	0	2287	ses-1	349
sub-23	1	366	crossed	different	same	800	right	lower	left	lower	0	822	ses-1	350
sub-23	1	367	crossed	different	different	300	left	upper	right	lower	0	1532	ses-1	351
sub-23	1	368	crossed	same	same	50	right	lower	right	lower	0	867	ses-1	352
sub-23	1	369	crossed	different	same	300	right	lower	left	lower	0	1087	ses-1	353
sub-23	1	370	crossed	different	same	50	left	lower	right	lower	0	833	ses-1	354
sub-23	1	371	crossed	same	same	300	left	lower	left	lower	0	1344	ses-1	355
sub-23	1	372	crossed	same	same	300	right	lower	right	lower	0	1173	ses-1	356
sub-23	1	373	crossed	same	same	300	left	lower	left	lower	0	1591	ses-1	357
sub-23	1	374	crossed	different	same	300	left	lower	right	lower	0	1090	ses-1	358
sub-23	1	375	crossed	same	different	800	left	upper	left	lower	0	778	ses-1	359
sub-23	1	376	crossed	different	same	800	right	lower	left	lower	0	841	ses-1	360
sub-23	1	377	crossed	different	different	300	right	upper	left	lower	0	1116	ses-1	361
sub-23	1	378	crossed	same	same	800	right	lower	right	lower	0	2488	ses-1	362
sub-23	1	379	crossed	same	same	100	right	lower	right	lower	0	746	ses-1	363
sub-23	1	380	crossed	same	different	100	right	upper	right	lower	0	628	ses-1	364
sub-23	1	381	crossed	same	same	800	right	lower	right	lower	0	2062	ses-1	365
sub-23	1	382	crossed	different	same	100	right	lower	left	lower	0	2422	ses-1	366
sub-23	1	383	crossed	same	different	300	left	lower	left	upper	0	1054	ses-1	367
sub-23	1	384	crossed	same	same	800	right	lower	right	lower	0	1315	ses-1	368
sub-23	1	385	crossed	different	same	50	left	lower	right	lower	0	2381	ses-1	369
sub-23	1	386	crossed	same	different	100	left	lower	left	upper	0	2097	ses-1	370
sub-23	1	387	crossed	different	same	100	left	lower	right	lower	0	1913	ses-1	371
sub-23	1	388	crossed	different	different	50	right	upper	left	lower	0	2069	ses-1	372
sub-23	1	389	crossed	different	different	100	right	upper	left	lower	0	818	ses-1	373
sub-23	1	390	crossed	different	different	800	right	upper	left	lower	0	1177	ses-1	374
sub-23	1	392	crossed	different	same	50	left	lower	right	lower	0	2875	ses-1	375
sub-23	1	393	crossed	same	same	100	left	lower	left	lower	0	2369	ses-1	376
sub-23	1	394	crossed	same	same	50	left	lower	left	lower	0	1257	ses-1	377
sub-23	1	395	crossed	different	different	50	right	upper	left	lower	0	2637	ses-1	378
sub-23	1	396	crossed	different	same	300	right	lower	left	lower	0	1766	ses-1	379
sub-23	1	397	crossed	same	same	50	right	lower	right	lower	0	2953	ses-1	380
sub-23	1	398	crossed	different	same	50	right	lower	left	lower	0	1137	ses-1	381
sub-23	1	399	crossed	different	different	800	left	lower	right	upper	0	716	ses-1	382
sub-23	1	400	crossed	different	same	100	left	lower	right	lower	0	1386	ses-1	383
sub-23	1	401	crossed	same	same	50	left	lower	left	lower	0	1493	ses-1	384
sub-23	2	1	crossed	different	different	300	left	upper	right	lower	0	1996	ses-1	385
sub-23	2	2	crossed	same	different	50	right	lower	right	upper	0	1182	ses-1	386
sub-23	2	3	crossed	same	different	300	right	lower	right	upper	0	590	ses-1	387
sub-23	2	4	crossed	different	same	50	right	lower	left	lower	0	701	ses-1	388
sub-23	2	5	crossed	different	same	100	left	lower	right	lower	0	1493	ses-1	389
sub-23	2	6	crossed	different	different	50	left	upper	right	lower	0	681	ses-1	390
sub-23	2	7	crossed	same	different	300	left	upper	left	lower	0	1223	ses-1	391
sub-23	2	8	crossed	same	same	800	left	lower	left	lower	0	734	ses-1	392
sub-23	2	9	crossed	different	same	800	left	lower	right	lower	0	823	ses-1	393
sub-23	2	10	crossed	different	same	100	left	lower	right	lower	0	988	ses-1	394
sub-23	2	11	crossed	different	different	300	left	lower	right	upper	0	620	ses-1	395
sub-23	2	12	crossed	same	same	300	left	lower	left	lower	0	825	ses-1	396
sub-23	2	13	crossed	different	different	300	left	lower	right	upper	0	823	ses-1	397
sub-23	2	14	crossed	same	same	300	right	lower	right	lower	0	2173	ses-1	398
sub-23	2	15	crossed	same	different	800	left	upper	left	lower	1	2244	ses-1	399
sub-23	2	16	crossed	different	different	300	left	lower	right	upper	0	723	ses-1	400
sub-23	2	17	crossed	same	same	100	left	lower	left	lower	1	2905	ses-1	401
sub-23	2	18	crossed	different	same	100	right	lower	left	lower	0	1831	ses-1	402
sub-23	2	19	crossed	different	same	800	right	lower	left	lower	0	998	ses-1	403
sub-23	2	20	crossed	different	same	300	right	lower	left	lower	0	2116	ses-1	404
sub-23	2	21	crossed	different	different	300	left	upper	right	lower	0	2612	ses-1	405
sub-23	2	22	crossed	different	different	50	right	lower	left	upper	0	2795	ses-1	406
sub-23	2	23	crossed	same	different	300	right	lower	right	upper	0	838	ses-1	407
sub-23	2	24	crossed	different	same	100	right	lower	left	lower	1	2261	ses-1	408
sub-23	2	26	crossed	different	different	100	left	upper	right	lower	0	862	ses-1	409
sub-23	2	27	crossed	different	same	300	right	lower	left	lower	0	931	ses-1	410
sub-23	2	28	crossed	same	same	100	left	lower	left	lower	0	1214	ses-1	411
sub-23	2	29	crossed	different	same	300	left	lower	right	lower	0	2369	ses-1	412
sub-23	2	30	crossed	same	same	50	left	lower	left	lower	0	1245	ses-1	413
sub-23	2	31	crossed	different	different	300	left	upper	right	lower	0	2354	ses-1	414
sub-23	2	32	crossed	different	different	100	left	upper	right	lower	0	1949	ses-1	415
sub-23	2	34	crossed	same	same	50	left	lower	left	lower	0	1385	ses-1	416
sub-23	2	35	crossed	same	different	100	left	lower	left	upper	0	1025	ses-1	417
sub-23	2	36	crossed	same	different	100	left	upper	left	lower	0	592	ses-1	418
sub-23	2	37	crossed	same	same	100	left	lower	left	lower	0	534	ses-1	419
sub-23	2	38	crossed	different	same	800	right	lower	left	lower	0	2681	ses-1	420
sub-23	2	39	crossed	same	different	300	left	upper	left	lower	0	799	ses-1	421
sub-23	2	40	crossed	same	different	100	left	upper	left	lower	0	673	ses-1	422
sub-23	2	41	crossed	different	same	50	right	lower	left	lower	0	1731	ses-1	423
sub-23	2	42	crossed	same	same	100	right	lower	right	lower	0	1215	ses-1	424
sub-23	2	43	crossed	different	different	50	left	upper	right	lower	0	2375	ses-1	425
sub-23	2	44	crossed	different	different	50	left	lower	right	upper	1	1505	ses-1	426
sub-23	2	45	crossed	different	different	300	right	upper	left	lower	0	2443	ses-1	427
sub-23	2	46	crossed	same	same	300	right	lower	right	lower	0	1257	ses-1	428
sub-23	2	47	crossed	same	different	50	left	upper	left	lower	0	1549	ses-1	429
sub-23	2	48	crossed	different	same	800	left	lower	right	lower	0	1592	ses-1	430
sub-23	2	49	crossed	same	same	300	right	lower	right	lower	0	760	ses-1	431
sub-23	2	50	crossed	different	different	50	right	upper	left	lower	1	888	ses-1	432
sub-23	2	51	crossed	different	different	100	left	lower	right	upper	0	1495	ses-1	433
sub-23	2	52	crossed	same	same	800	right	lower	right	lower	0	1801	ses-1	434
sub-23	2	53	crossed	different	different	50	right	upper	left	lower	0	1878	ses-1	435
sub-23	2	54	crossed	same	different	300	right	upper	right	lower	0	713	ses-1	436
sub-23	2	55	crossed	different	same	100	right	lower	left	lower	0	2015	ses-1	437
sub-23	2	56	crossed	different	different	50	left	upper	right	lower	0	1656	ses-1	438
sub-23	2	57	crossed	different	same	300	left	lower	right	lower	0	1200	ses-1	439
sub-23	2	58	crossed	different	different	300	left	upper	right	lower	0	1475	ses-1	440
sub-23	2	59	crossed	same	different	800	left	upper	left	lower	0	1031	ses-1	441
sub-23	2	60	crossed	different	same	50	left	lower	right	lower	1	1975	ses-1	442
sub-23	2	62	crossed	same	same	800	right	lower	right	lower	0	1259	ses-1	443
sub-23	2	63	crossed	same	different	100	right	lower	right	upper	0	799	ses-1	444
sub-23	2	64	crossed	different	same	800	left	lower	right	lower	0	1558	ses-1	445
sub-23	2	65	crossed	same	same	300	left	lower	left	lower	0	831	ses-1	446
sub-23	2	66	crossed	same	same	800	left	lower	left	lower	0	673	ses-1	447
sub-23	2	67	crossed	different	different	800	right	lower	left	upper	0	1524	ses-1	448
sub-23	2	68	crossed	same	same	50	right	lower	right	lower	0	974	ses-1	449
sub-23	2	69	crossed	different	different	100	right	upper	left	lower	0	1934	ses-1	450
sub-23	2	70	crossed	same	different	100	left	upper	left	lower	0	819	ses-1	451
sub-23	2	71	crossed	different	same	100	right	lower	left	lower	0	1192	ses-1	452
sub-23	2	72	crossed	different	different	50	left	upper	right	lower	0	1877	ses-1	453
sub-23	2	73	crossed	different	different	300	right	upper	left	lower	0	1337	ses-1	454
sub-23	2	74	crossed	different	same	50	left	lower	right	lower	0	1582	ses-1	455
sub-23	2	76	crossed	different	same	800	left	lower	right	lower	1	1664	ses-1	456
sub-23	2	77	crossed	same	different	800	right	upper	right	lower	0	1291	ses-1	457
sub-23	2	78	crossed	different	different	300	right	upper	left	lower	0	1205	ses-1	458
sub-23	2	79	crossed	different	different	300	right	lower	left	upper	1	2659	ses-1	459
sub-23	2	80	crossed	same	same	300	left	lower	left	lower	0	945	ses-1	460
sub-23	2	81	crossed	same	different	300	right	upper	right	lower	0	1221	ses-1	461
sub-23	2	82	crossed	different	same	50	left	lower	right	lower	0	2646	ses-1	462
sub-23	2	83	crossed	same	same	800	right	lower	right	lower	0	1443	ses-1	463
sub-23	2	84	crossed	same	different	300	left	lower	left	upper	0	1697	ses-1	464
sub-23	2	85	crossed	different	different	100	left	upper	right	lower	0	1752	ses-1	465
sub-23	2	86	crossed	different	same	50	right	lower	left	lower	0	2099	ses-1	466
sub-23	2	87	crossed	same	same	50	right	lower	right	lower	0	1574	ses-1	467
sub-23	2	88	crossed	same	same	300	right	lower	right	lower	0	790	ses-1	468
sub-23	2	89	crossed	different	same	50	left	lower	right	lower	0	2105	ses-1	469
sub-23	2	90	crossed	same	different	100	right	upper	right	lower	0	786	ses-1	470
sub-23	2	91	crossed	same	different	100	left	upper	left	lower	0	1943	ses-1	471
sub-23	2	92	crossed	different	different	50	left	lower	right	upper	0	2879	ses-1	472
sub-23	2	93	crossed	same	same	300	right	lower	right	lower	0	1128	ses-1	473
sub-23	2	94	crossed	different	same	50	right	lower	left	lower	1	2375	ses-1	474
sub-23	2	95	crossed	different	same	100	left	lower	right	lower	0	2384	ses-1	475
sub-23	2	96	crossed	different	different	800	right	upper	left	lower	0	968	ses-1	476
sub-23	2	98	crossed	different	same	800	right	lower	left	lower	0	1280	ses-1	477
sub-23	2	99	crossed	different	same	300	left	lower	right	lower	1	778	ses-1	478
sub-23	2	100	crossed	different	same	50	left	lower	right	lower	0	1831	ses-1	479
sub-23	2	101	crossed	same	different	50	right	lower	right	upper	0	836	ses-1	480
sub-23	2	102	crossed	different	different	50	left	lower	right	upper	0	2035	ses-1	481
sub-23	2	103	crossed	same	same	300	left	lower	left	lower	0	1795	ses-1	482
sub-23	2	104	crossed	different	same	50	right	lower	left	lower	0	1873	ses-1	483
sub-23	2	105	crossed	different	same	800	left	lower	right	lower	0	761	ses-1	484
sub-23	2	106	crossed	different	different	300	right	upper	left	lower	0	753	ses-1	485
sub-23	2	107	crossed	same	same	300	left	lower	left	lower	0	1075	ses-1	486
sub-23	2	108	crossed	different	same	800	right	lower	left	lower	0	2295	ses-1	487
sub-23	2	109	crossed	different	different	100	left	lower	right	upper	0	776	ses-1	488
sub-23	2	110	crossed	same	same	50	right	lower	right	lower	1	1703	ses-1	489
sub-23	2	111	crossed	same	same	800	left	lower	left	lower	0	992	ses-1	490
sub-23	2	113	crossed	different	same	300	right	lower	left	lower	1	940	ses-1	491
sub-23	2	114	crossed	same	same	100	right	lower	right	lower	1	1119	ses-1	492
sub-23	2	115	crossed	different	different	800	right	lower	left	upper	0	776	ses-1	493
sub-23	2	116	crossed	different	same	50	left	lower	right	lower	0	2365	ses-1	494
sub-23	2	117	crossed	same	same	100	right	lower	right	lower	1	2394	ses-1	495
sub-23	2	118	crossed	same	different	800	right	lower	right	upper	1	921	ses-1	496
sub-23	2	119	crossed	same	same	50	left	lower	left	lower	0	1840	ses-1	497
sub-23	2	120	crossed	same	same	100	left	lower	left	lower	0	868	ses-1	498
sub-23	2	121	crossed	same	different	50	right	lower	right	upper	0	1110	ses-1	499
sub-23	2	122	crossed	same	different	50	left	upper	left	lower	0	734	ses-1	500
sub-23	2	123	crossed	different	different	800	left	upper	right	lower	0	1957	ses-1	501
sub-23	2	124	crossed	same	same	100	right	lower	right	lower	0	1015	ses-1	502
sub-23	2	125	crossed	different	different	800	right	upper	left	lower	0	826	ses-1	503
sub-23	2	126	crossed	different	same	100	left	lower	right	lower	0	2705	ses-1	504
sub-23	2	127	crossed	same	different	50	left	lower	left	upper	0	1098	ses-1	505
sub-23	2	128	crossed	same	same	50	left	lower	left	lower	1	2625	ses-1	506
sub-23	2	129	crossed	same	different	50	left	lower	left	upper	0	1333	ses-1	507
sub-23	2	130	crossed	different	same	50	left	lower	right	lower	0	1964	ses-1	508
sub-23	2	131	crossed	same	different	300	right	lower	right	upper	1	778	ses-1	509
sub-23	2	133	crossed	same	different	100	right	upper	right	lower	0	931	ses-1	510
sub-23	2	134	crossed	same	different	300	right	upper	right	lower	0	734	ses-1	511
sub-23	2	135	crossed	same	different	300	left	lower	left	upper	1	955	ses-1	512
sub-23	2	136	crossed	different	different	100	left	upper	right	lower	0	1354	ses-1	513
sub-23	2	137	crossed	same	same	800	right	lower	right	lower	0	837	ses-1	514
sub-23	2	138	crossed	same	different	100	right	lower	right	upper	0	775	ses-1	515
sub-23	2	139	crossed	different	different	50	right	upper	left	lower	0	1252	ses-1	516
sub-23	2	140	crossed	same	same	300	left	lower	left	lower	1	1368	ses-1	517
sub-23	2	141	crossed	same	same	100	left	lower	left	lower	0	1267	ses-1	518
sub-23	2	142	crossed	same	different	50	right	upper	right	lower	1	1118	ses-1	519
sub-23	2	143	crossed	different	same	800	left	lower	right	lower	0	1277	ses-1	520
sub-23	2	144	crossed	different	different	100	right	upper	left	lower	0	873	ses-1	521
sub-23	2	145	crossed	different	same	800	left	lower	right	lower	0	1712	ses-1	522
sub-23	2	146	crossed	same	same	300	left	lower	left	lower	0	1303	ses-1	523
sub-23	2	147	crossed	same	different	800	right	upper	right	lower	0	1422	ses-1	524
sub-23	2	148	crossed	different	same	300	right	lower	left	lower	0	1056	ses-1	525
sub-23	2	149	crossed	same	same	50	right	lower	right	lower	0	759	ses-1	526
sub-23	2	150	crossed	different	same	800	right	lower	left	lower	0	789	ses-1	527
sub-23	2	151	crossed	different	different	800	left	upper	right	lower	0	768	ses-1	528
sub-23	2	152	crossed	different	same	300	left	lower	right	lower	0	683	ses-1	529
sub-23	2	153	crossed	different	different	300	right	lower	left	upper	0	922	ses-1	530
sub-23	2	154	crossed	same	different	300	right	lower	right	upper	0	1105	ses-1	531
sub-23	2	155	crossed	same	different	300	right	upper	right	lower	0	2460	ses-1	532
sub-23	2	156	crossed	different	different	300	left	upper	right	lower	0	1255	ses-1	533
sub-23	2	157	crossed	different	same	300	left	lower	right	lower	0	2481	ses-1	534
sub-23	2	158	crossed	different	same	300	right	lower	left	lower	0	1663	ses-1	535
sub-23	2	159	crossed	different	same	100	right	lower	left	lower	0	1979	ses-1	536
sub-23	2	160	crossed	same	different	100	right	upper	right	lower	1	1018	ses-1	537
sub-23	2	161	crossed	different	different	100	right	upper	left	lower	0	2018	ses-1	538
sub-23	2	162	crossed	different	different	300	left	lower	right	upper	0	1431	ses-1	539
sub-23	2	163	crossed	different	different	800	left	upper	right	lower	1	1267	ses-1	540
sub-23	2	164	crossed	different	different	800	left	lower	right	upper	0	1304	ses-1	541
sub-23	2	165	crossed	different	different	300	right	lower	left	upper	0	2856	ses-1	542
sub-23	2	167	crossed	different	same	50	left	lower	right	lower	0	1426	ses-1	543
sub-23	2	168	crossed	same	same	100	left	lower	left	lower	0	760	ses-1	544
sub-23	2	169	crossed	same	different	100	right	lower	right	upper	1	2847	ses-1	545
sub-23	2	170	crossed	same	same	300	right	lower	right	lower	0	1731	ses-1	546
sub-23	2	171	crossed	same	different	800	left	lower	left	upper	0	693	ses-1	547
sub-23	2	172	crossed	different	different	800	left	lower	right	upper	0	642	ses-1	548
sub-23	2	173	crossed	same	same	100	left	lower	left	lower	1	990	ses-1	549
sub-23	2	174	crossed	same	same	800	left	lower	left	lower	1	658	ses-1	550
sub-23	2	175	crossed	same	different	100	left	lower	left	upper	0	567	ses-1	551
sub-23	2	176	crossed	different	same	100	left	lower	right	lower	0	874	ses-1	552
sub-23	2	177	crossed	same	same	100	left	lower	left	lower	0	687	ses-1	553
sub-23	2	178	crossed	same	different	800	left	lower	left	upper	0	751	ses-1	554
sub-23	2	179	crossed	same	same	50	left	lower	left	lower	0	1343	ses-1	555
sub-23	2	180	crossed	same	different	300	left	lower	left	upper	0	919	ses-1	556
sub-23	2	181	crossed	different	different	800	right	upper	left	lower	0	1171	ses-1	557
sub-23	2	182	crossed	different	same	300	left	lower	right	lower	1	2466	ses-1	558
sub-23	2	183	crossed	same	different	800	left	lower	left	upper	0	920	ses-1	559
sub-23	2	184	crossed	same	same	50	right	lower	right	lower	0	1691	ses-1	560
sub-23	2	185	crossed	same	different	50	right	upper	right	lower	0	686	ses-1	561
sub-23	2	186	crossed	same	different	300	right	lower	right	upper	0	608	ses-1	562
sub-23	2	187	crossed	different	same	300	right	lower	left	lower	0	954	ses-1	563
sub-23	2	188	crossed	different	same	100	left	lower	right	lower	0	2179	ses-1	564
sub-23	2	189	crossed	different	same	800	left	lower	right	lower	0	928	ses-1	565
sub-23	2	190	crossed	different	different	100	right	upper	left	lower	1	1688	ses-1	566
sub-23	2	191	crossed	same	different	100	right	lower	right	upper	0	720	ses-1	567
sub-23	2	192	crossed	same	different	100	right	lower	right	upper	0	1219	ses-1	568
sub-23	2	194	crossed	same	same	100	right	lower	right	lower	0	853	ses-1	569
sub-23	2	195	crossed	different	same	50	left	lower	right	lower	0	1656	ses-1	570
sub-23	2	196	crossed	same	different	50	left	lower	left	upper	0	1074	ses-1	571
sub-23	2	197	crossed	different	different	50	left	upper	right	lower	0	1663	ses-1	572
sub-23	2	198	crossed	same	different	100	right	upper	right	lower	0	1730	ses-1	573
sub-23	2	199	crossed	same	same	300	left	lower	left	lower	0	1582	ses-1	574
sub-23	2	200	crossed	different	same	300	right	lower	left	lower	0	1234	ses-1	575
sub-23	2	201	crossed	same	different	50	left	upper	left	lower	0	1093	ses-1	576
sub-23	2	202	crossed	different	different	50	left	lower	right	upper	0	1762	ses-1	577
sub-23	2	203	crossed	different	different	100	left	lower	right	upper	0	1544	ses-1	578
sub-23	2	204	crossed	same	same	800	left	lower	left	lower	0	816	ses-1	579
sub-23	2	205	crossed	same	different	300	left	upper	left	lower	1	872	ses-1	580
sub-23	2	206	crossed	same	different	800	right	upper	right	lower	0	1089	ses-1	581
sub-23	2	207	crossed	different	different	800	right	upper	left	lower	0	1537	ses-1	582
sub-23	2	208	crossed	different	different	800	left	lower	right	upper	0	653	ses-1	583
sub-23	2	209	crossed	different	same	100	right	lower	left	lower	1	2390	ses-1	584
sub-23	2	210	crossed	same	same	50	right	lower	right	lower	0	1891	ses-1	585
sub-23	2	211	crossed	same	different	800	left	upper	left	lower	0	2455	ses-1	586
sub-23	2	212	crossed	same	same	50	right	lower	right	lower	0	1313	ses-1	587
sub-23	2	213	crossed	different	different	800	left	upper	right	lower	0	1832	ses-1	588
sub-23	2	214	crossed	same	different	100	left	lower	left	upper	0	714	ses-1	589
sub-23	2	215	crossed	same	same	800	right	lower	right	lower	0	977	ses-1	590
sub-23	2	216	crossed	same	same	50	left	lower	left	lower	1	1330	ses-1	591
sub-23	2	217	crossed	different	different	100	right	lower	left	upper	1	2354	ses-1	592
sub-23	2	218	crossed	same	same	800	right	lower	right	lower	0	1925	ses-1	593
sub-23	2	219	crossed	different	same	100	right	lower	left	lower	0	900	ses-1	594
sub-23	2	220	crossed	same	same	50	left	lower	left	lower	1	1440	ses-1	595
sub-23	2	221	crossed	different	same	300	left	lower	right	lower	0	1275	ses-1	596
sub-23	2	222	crossed	different	different	100	left	lower	right	upper	0	1991	ses-1	597
sub-23	2	223	crossed	different	same	100	right	lower	left	lower	0	1720	ses-1	598
sub-23	2	224	crossed	different	different	50	left	upper	right	lower	0	2065	ses-1	599
sub-23	2	226	crossed	same	different	50	right	upper	right	lower	0	952	ses-1	600
sub-23	2	227	crossed	different	same	300	left	lower	right	lower	0	1521	ses-1	601
sub-23	2	228	crossed	same	same	300	left	lower	left	lower	0	952	ses-1	602
sub-23	2	229	crossed	same	different	300	right	lower	right	upper	0	846	ses-1	603
sub-23	2	230	crossed	same	same	300	right	lower	right	lower	1	2370	ses-1	604
sub-23	2	231	crossed	same	different	50	right	upper	right	lower	0	981	ses-1	605
sub-23	2	232	crossed	same	same	300	left	lower	left	lower	0	1254	ses-1	606
sub-23	2	233	crossed	different	different	100	right	lower	left	upper	0	1868	ses-1	607
sub-23	2	234	crossed	same	different	50	right	lower	right	upper	0	740	ses-1	608
sub-23	2	235	crossed	same	same	100	right	lower	right	lower	0	672	ses-1	609
sub-23	2	236	crossed	same	same	800	right	lower	right	lower	0	564	ses-1	610
sub-23	2	237	crossed	different	same	50	right	lower	left	lower	0	1231	ses-1	611
sub-23	2	238	crossed	same	different	800	left	upper	left	lower	0	721	ses-1	612
sub-23	2	239	crossed	same	different	800	right	lower	right	upper	0	1524	ses-1	613
sub-23	2	240	crossed	same	different	100	right	lower	right	upper	0	625	ses-1	614
sub-23	2	242	crossed	different	same	50	right	lower	left	lower	0	764	ses-1	615
sub-23	2	243	crossed	same	different	300	left	lower	left	upper	0	806	ses-1	616
sub-23	2	244	crossed	same	different	300	right	upper	right	lower	0	690	ses-1	617
sub-23	2	245	crossed	different	same	800	right	lower	left	lower	0	568	ses-1	618
sub-23	2	246	crossed	same	different	800	left	lower	left	upper	0	1424	ses-1	619
sub-23	2	247	crossed	same	same	800	right	lower	right	lower	0	1225	ses-1	620
sub-23	2	248	crossed	different	different	50	right	lower	left	upper	0	1578	ses-1	621
sub-23	2	249	crossed	different	different	100	left	lower	right	upper	1	1027	ses-1	622
sub-23	2	250	crossed	same	different	800	left	upper	left	lower	0	758	ses-1	623
sub-23	2	251	crossed	different	different	300	right	lower	left	upper	0	1523	ses-1	624
sub-23	2	252	crossed	same	different	50	left	lower	left	upper	1	1231	ses-1	625
sub-23	2	253	crossed	same	same	300	right	lower	right	lower	0	1247	ses-1	626
sub-23	2	254	crossed	same	same	800	right	lower	right	lower	1	2585	ses-1	627
sub-23	2	255	crossed	different	different	800	right	lower	left	upper	0	1682	ses-1	628
sub-23	2	256	crossed	same	same	800	right	lower	right	lower	0	967	ses-1	629
sub-23	2	257	crossed	different	same	50	left	lower	right	lower	0	1514	ses-1	630
sub-23	2	258	crossed	different	different	100	right	lower	left	upper	0	686	ses-1	631
sub-23	2	259	crossed	same	same	100	left	lower	left	lower	0	1623	ses-1	632
sub-23	2	260	crossed	same	same	300	left	lower	left	lower	0	1539	ses-1	633
sub-23	2	261	crossed	different	same	800	right	lower	left	lower	0	1482	ses-1	634
sub-23	2	262	crossed	same	same	800	right	lower	right	lower	0	1118	ses-1	635
sub-23	2	263	crossed	same	same	50	right	lower	right	lower	0	817	ses-1	636
sub-23	2	264	crossed	different	same	800	left	lower	right	lower	0	857	ses-1	637
sub-23	2	265	crossed	different	same	50	right	lower	left	lower	0	1243	ses-1	638
sub-23	2	266	crossed	same	different	800	right	lower	right	upper	0	1090	ses-1	639
sub-23	2	267	crossed	different	different	800	left	lower	right	upper	0	1630	ses-1	640
sub-23	2	268	crossed	different	same	50	right	lower	left	lower	1	2212	ses-1	641
sub-23	2	269	crossed	same	different	300	left	upper	left	lower	0	1959	ses-1	642
sub-23	2	270	crossed	same	different	100	left	lower	left	upper	1	813	ses-1	643
sub-23	2	271	crossed	same	different	800	right	lower	right	upper	0	793	ses-1	644
sub-23	2	272	crossed	same	different	800	left	upper	left	lower	0	781	ses-1	645
sub-23	2	273	crossed	same	different	800	right	lower	right	upper	0	933	ses-1	646
sub-23	2	274	crossed	same	different	800	right	upper	right	lower	0	607	ses-1	647
sub-23	2	275	crossed	different	different	100	left	lower	right	upper	1	1230	ses-1	648
sub-23	2	276	crossed	same	different	50	right	lower	right	upper	0	1380	ses-1	649
sub-23	2	277	crossed	same	same	800	left	lower	left	lower	0	887	ses-1	650
sub-23	2	278	crossed	different	different	300	right	lower	left	upper	0	1501	ses-1	651
sub-23	2	279	crossed	different	same	300	left	lower	right	lower	1	2632	ses-1	652
sub-23	2	280	crossed	same	different	300	left	lower	left	upper	0	1488	ses-1	653
sub-23	2	281	crossed	same	same	100	right	lower	right	lower	0	975	ses-1	654
sub-23	2	282	crossed	same	different	300	left	upper	left	lower	0	2132	ses-1	655
sub-23	2	283	crossed	different	different	800	left	lower	right	upper	0	1855	ses-1	656
sub-23	2	285	crossed	same	different	50	left	upper	left	lower	0	2168	ses-1	657
sub-23	2	286	crossed	different	same	100	right	lower	left	lower	0	2158	ses-1	658
sub-23	2	287	crossed	different	same	800	right	lower	left	lower	0	1182	ses-1	659
sub-23	2	288	crossed	different	same	100	right	lower	left	lower	0	1914	ses-1	660
sub-23	2	289	crossed	same	same	800	left	lower	left	lower	1	1618	ses-1	661
sub-23	2	290	crossed	same	different	300	right	upper	right	lower	0	1903	ses-1	662
sub-23	2	291	crossed	same	same	100	right	lower	right	lower	0	889	ses-1	663
sub-23	2	292	crossed	same	different	300	left	upper	left	lower	0	1402	ses-1	664
sub-23	2	293	crossed	different	different	50	right	lower	left	upper	0	1993	ses-1	665
sub-23	2	294	crossed	same	same	100	right	lower	right	lower	0	1119	ses-1	666
sub-23	2	295	crossed	same	different	50	left	lower	left	upper	1	1374	ses-1	667
sub-23	2	296	crossed	different	different	50	right	lower	left	upper	0	2223	ses-1	668
sub-23	2	297	crossed	same	different	800	right	lower	right	upper	0	851	ses-1	669
sub-23	2	299	crossed	different	different	300	left	lower	right	upper	0	2425	ses-1	670
sub-23	2	300	crossed	same	different	100	right	upper	right	lower	0	1190	ses-1	671
sub-23	2	301	crossed	same	same	800	left	lower	left	lower	1	1095	ses-1	672
sub-23	2	302	crossed	same	different	50	right	upper	right	lower	0	846	ses-1	673
sub-23	2	303	crossed	different	same	800	left	lower	right	lower	0	1482	ses-1	674
sub-23	2	304	crossed	same	same	300	right	lower	right	lower	0	1987	ses-1	675
sub-23	2	305	crossed	different	same	800	right	lower	left	lower	0	602	ses-1	676
sub-23	2	306	crossed	same	same	800	right	lower	right	lower	0	937	ses-1	677
sub-23	2	307	crossed	different	same	50	left	lower	right	lower	0	915	ses-1	678
sub-23	2	308	crossed	same	different	800	right	upper	right	lower	0	830	ses-1	679
sub-23	2	309	crossed	same	different	50	left	upper	left	lower	0	1054	ses-1	680
sub-23	2	310	crossed	different	different	300	right	lower	left	upper	0	1256	ses-1	681
sub-23	2	311	crossed	different	different	800	right	lower	left	upper	0	702	ses-1	682
sub-23	2	312	crossed	different	different	50	left	lower	right	upper	0	1463	ses-1	683
sub-23	2	313	crossed	different	same	100	right	lower	left	lower	0	1792	ses-1	684
sub-23	2	314	crossed	different	same	800	left	lower	right	lower	0	671	ses-1	685
sub-23	2	315	crossed	same	same	100	left	lower	left	lower	0	933	ses-1	686
sub-23	2	316	crossed	same	same	300	right	lower	right	lower	1	1507	ses-1	687
sub-23	2	317	crossed	different	same	800	right	lower	left	lower	0	862	ses-1	688
sub-23	2	318	crossed	different	same	800	right	lower	left	lower	0	792	ses-1	689
sub-23	2	319	crossed	different	different	100	right	lower	left	upper	0	1607	ses-1	690
sub-23	2	320	crossed	same	same	100	left	lower	left	lower	1	1006	ses-1	691
sub-23	2	321	crossed	same	different	800	left	lower	left	upper	1	568	ses-1	692
sub-23	2	322	crossed	different	same	100	left	lower	right	lower	0	2005	ses-1	693
sub-23	2	323	crossed	different	different	50	right	upper	left	lower	0	1033	ses-1	694
sub-23	2	324	crossed	different	different	800	right	upper	left	lower	0	725	ses-1	695
sub-23	2	325	crossed	same	different	100	left	upper	left	lower	0	1568	ses-1	696
sub-23	2	326	crossed	different	different	300	left	lower	right	upper	0	797	ses-1	697
sub-23	2	327	crossed	different	same	100	right	lower	left	lower	0	1687	ses-1	698
sub-23	2	328	crossed	different	same	300	left	lower	right	lower	0	604	ses-1	699
sub-23	2	329	crossed	different	same	300	left	lower	right	lower	1	1928	ses-1	700
sub-23	2	330	crossed	different	different	800	left	upper	right	lower	0	1022	ses-1	701
sub-23	2	331	crossed	same	different	100	left	lower	left	upper	0	1108	ses-1	702
sub-23	2	332	crossed	same	different	50	right	upper	right	lower	0	902	ses-1	703
sub-23	2	333	crossed	different	different	100	left	upper	right	lower	0	2320	ses-1	704
sub-23	2	334	crossed	different	different	100	right	upper	left	lower	0	870	ses-1	705
sub-23	2	335	crossed	different	same	800	right	lower	left	lower	1	900	ses-1	706
sub-23	2	336	crossed	same	same	50	left	lower	left	lower	0	639	ses-1	707
sub-23	2	338	crossed	different	same	50	right	lower	left	lower	0	1567	ses-1	708
sub-23	2	339	crossed	different	same	50	right	lower	left	lower	1	800	ses-1	709
sub-23	2	340	crossed	different	different	50	left	lower	right	upper	0	768	ses-1	710
sub-23	2	341	crossed	different	same	100	left	lower	right	lower	1	1688	ses-1	711
sub-23	2	342	crossed	different	different	50	right	lower	left	upper	1	639	ses-1	712
sub-23	2	343	crossed	different	same	50	left	lower	right	lower	1	529	ses-1	713
sub-23	2	344	crossed	same	same	100	right	lower	right	lower	0	1270	ses-1	714
sub-23	2	345	crossed	same	different	50	left	lower	left	upper	1	922	ses-1	715
sub-23	2	346	crossed	different	same	300	right	lower	left	lower	0	2021	ses-1	716
sub-23	2	347	crossed	same	same	50	right	lower	right	lower	0	761	ses-1	717
sub-23	2	348	crossed	same	same	50	right	lower	right	lower	0	553	ses-1	718
sub-23	2	349	crossed	same	same	800	left	lower	left	lower	0	1744	ses-1	719
sub-23	2	350	crossed	same	same	50	right	lower	right	lower	0	619	ses-1	720
sub-23	2	351	crossed	same	same	100	right	lower	right	lower	0	1302	ses-1	721
sub-23	2	352	crossed	different	different	800	right	upper	left	lower	0	1040	ses-1	722
sub-23	2	353	crossed	same	different	100	right	upper	right	lower	0	1847	ses-1	723
sub-23	2	354	crossed	same	same	50	right	lower	right	lower	0	1511	ses-1	724
sub-23	2	355	crossed	same	same	50	left	lower	left	lower	0	2174	ses-1	725
sub-23	2	356	crossed	different	different	800	right	lower	left	upper	0	2453	ses-1	726
sub-23	2	357	crossed	same	different	100	left	upper	left	lower	0	1246	ses-1	727
sub-23	2	358	crossed	different	same	100	left	lower	right	lower	1	2264	ses-1	728
sub-23	2	360	crossed	different	different	100	right	upper	left	lower	0	1469	ses-1	729
sub-23	2	361	crossed	different	same	300	right	lower	left	lower	0	2627	ses-1	730
sub-23	2	362	crossed	different	different	300	left	upper	right	lower	0	1188	ses-1	731
sub-23	2	363	crossed	same	same	800	left	lower	left	lower	1	914	ses-1	732
sub-23	2	365	crossed	different	same	300	right	lower	left	lower	0	1884	ses-1	733
sub-23	2	366	crossed	different	different	800	right	lower	left	upper	1	710	ses-1	734
sub-23	2	367	crossed	same	same	300	right	lower	right	lower	0	1784	ses-1	735
sub-23	2	368	crossed	same	same	50	left	lower	left	lower	0	1642	ses-1	736
sub-23	2	369	crossed	same	different	50	left	upper	left	lower	0	682	ses-1	737
sub-23	2	370	crossed	different	different	300	right	upper	left	lower	0	841	ses-1	738
sub-23	2	371	crossed	different	different	100	right	lower	left	upper	0	1575	ses-1	739
sub-23	2	372	crossed	same	same	100	right	lower	right	lower	0	721	ses-1	740
sub-23	2	373	crossed	same	different	50	right	lower	right	upper	0	581	ses-1	741
sub-23	2	374	crossed	different	different	100	left	upper	right	lower	0	1290	ses-1	742
sub-23	2	375	crossed	same	different	100	left	lower	left	upper	1	1272	ses-1	743
sub-23	2	376	crossed	same	same	300	left	lower	left	lower	0	848	ses-1	744
sub-23	2	377	crossed	same	different	800	left	lower	left	upper	0	524	ses-1	745
sub-23	2	378	crossed	different	same	100	left	lower	right	lower	0	834	ses-1	746
sub-23	2	379	crossed	same	same	300	right	lower	right	lower	0	1261	ses-1	747
sub-23	2	380	crossed	different	same	800	left	lower	right	lower	1	806	ses-1	748
sub-23	2	381	crossed	same	same	800	left	lower	left	lower	0	809	ses-1	749
sub-23	2	382	crossed	same	different	800	right	upper	right	lower	0	1183	ses-1	750
sub-23	2	383	crossed	same	same	800	left	lower	left	lower	0	874	ses-1	751
sub-23	2	384	crossed	different	different	50	right	upper	left	lower	0	1541	ses-1	752
sub-23	2	385	crossed	different	different	800	left	upper	right	lower	0	1006	ses-1	753
sub-23	2	386	crossed	same	same	50	left	lower	left	lower	1	2583	ses-1	754
sub-23	2	387	crossed	same	same	50	left	lower	left	lower	1	2505	ses-1	755
sub-23	2	388	crossed	different	same	300	left	lower	right	lower	0	1729	ses-1	756
sub-23	2	389	crossed	same	different	300	left	lower	left	upper	0	1100	ses-1	757
sub-23	2	390	crossed	different	different	50	right	upper	left	lower	1	2466	ses-1	758
sub-23	2	391	crossed	same	same	100	left	lower	left	lower	0	909	ses-1	759
sub-23	2	392	crossed	different	same	100	left	lower	right	lower	0	1511	ses-1	760
sub-23	2	393	crossed	different	different	300	right	upper	left	lower	0	1234	ses-1	761
sub-23	2	395	crossed	different	different	800	left	lower	right	upper	0	609	ses-1	762
sub-23	2	396	crossed	different	same	300	right	lower	left	lower	0	760	ses-1	763
sub-23	2	397	crossed	different	same	300	right	lower	left	lower	0	1032	ses-1	764
sub-23	2	398	crossed	different	same	100	left	lower	right	lower	1	2195	ses-1	765
sub-23	2	399	crossed	different	different	50	right	lower	left	upper	0	1521	ses-1	766
sub-23	2	400	crossed	different	different	100	right	lower	left	upper	0	766	ses-1	767
sub-23	2	401	crossed	different	same	50	right	lower	left	lower	0	2537	ses-1	768
sub-23	1	3	uncrossed	different	different	100	right	upper	left	lower	0	757	ses-1	769
sub-23	1	4	uncrossed	different	same	100	right	lower	left	lower	0	663	ses-1	770
sub-23	1	5	uncrossed	same	different	100	right	upper	right	lower	0	721	ses-1	771
sub-23	1	6	uncrossed	same	different	800	right	upper	right	lower	0	123	ses-1	772
sub-23	1	7	uncrossed	different	different	300	right	lower	left	upper	0	854	ses-1	773
sub-23	1	8	uncrossed	same	different	100	right	lower	right	upper	0	896	ses-1	774
sub-23	1	9	uncrossed	same	same	50	left	lower	left	lower	0	974	ses-1	775
sub-23	1	10	uncrossed	different	same	800	left	lower	right	lower	0	826	ses-1	776
sub-23	1	11	uncrossed	same	same	100	right	lower	right	lower	0	893	ses-1	777
sub-23	1	12	uncrossed	same	different	100	right	upper	right	lower	0	940	ses-1	778
sub-23	1	13	uncrossed	same	different	100	left	lower	left	upper	0	1046	ses-1	779
sub-23	1	14	uncrossed	same	same	50	left	lower	left	lower	0	1182	ses-1	780
sub-23	1	15	uncrossed	different	different	800	right	lower	left	upper	0	977	ses-1	781
sub-23	1	16	uncrossed	same	same	300	left	lower	left	lower	0	1015	ses-1	782
sub-23	1	17	uncrossed	different	same	50	right	lower	left	lower	0	990	ses-1	783
sub-23	1	18	uncrossed	different	different	50	right	lower	left	upper	0	708	ses-1	784
sub-23	1	19	uncrossed	same	different	50	right	upper	right	lower	0	685	ses-1	785
sub-23	1	20	uncrossed	same	same	100	left	lower	left	lower	0	1327	ses-1	786
sub-23	1	21	uncrossed	different	same	300	left	lower	right	lower	0	676	ses-1	787
sub-23	1	22	uncrossed	same	different	800	right	upper	right	lower	0	971	ses-1	788
sub-23	1	23	uncrossed	same	same	50	left	lower	left	lower	0	1279	ses-1	789
sub-23	1	24	uncrossed	same	different	800	left	upper	left	lower	0	775	ses-1	790
sub-23	1	25	uncrossed	same	same	50	left	lower	left	lower	0	1279	ses-1	791
sub-23	1	26	uncrossed	same	different	800	right	upper	right	lower	0	805	ses-1	792
sub-23	1	27	uncrossed	different	same	300	right	lower	left	lower	0	626	ses-1	793
sub-23	1	28	uncrossed	same	different	300	right	upper	right	lower	0	755	ses-1	794
sub-23	1	29	uncrossed	different	same	800	right	lower	left	lower	0	864	ses-1	795
sub-23	1	30	uncrossed	different	same	800	right	lower	left	lower	0	1397	ses-1	796
sub-23	1	31	uncrossed	same	same	300	right	lower	right	lower	0	784	ses-1	797
sub-23	1	32	uncrossed	different	same	100	left	lower	right	lower	0	615	ses-1	798
sub-23	1	33	uncrossed	same	same	800	left	lower	left	lower	0	692	ses-1	799
sub-23	1	34	uncrossed	different	same	300	right	lower	left	lower	0	2121	ses-1	800
sub-23	1	35	uncrossed	same	different	50	left	upper	left	lower	0	961	ses-1	801
sub-23	1	36	uncrossed	different	same	300	right	lower	left	lower	0	535	ses-1	802
sub-23	1	37	uncrossed	same	different	300	left	lower	left	upper	0	760	ses-1	803
sub-23	1	38	uncrossed	different	different	50	left	upper	right	lower	0	967	ses-1	804
sub-23	1	39	uncrossed	different	different	100	left	upper	right	lower	0	1423	ses-1	805
sub-23	1	40	uncrossed	different	same	300	left	lower	right	lower	0	646	ses-1	806
sub-23	1	41	uncrossed	different	same	800	right	lower	left	lower	1	625	ses-1	807
sub-23	1	42	uncrossed	same	same	50	right	lower	right	lower	0	1231	ses-1	808
sub-23	1	43	uncrossed	same	different	100	right	lower	right	upper	0	2125	ses-1	809
sub-23	1	44	uncrossed	same	different	100	left	lower	left	upper	0	1740	ses-1	810
sub-23	1	45	uncrossed	different	same	800	left	lower	right	lower	0	646	ses-1	811
sub-23	1	46	uncrossed	same	different	50	left	upper	left	lower	0	1881	ses-1	812
sub-23	1	47	uncrossed	same	different	300	left	upper	left	lower	0	1629	ses-1	813
sub-23	1	48	uncrossed	different	different	800	left	lower	right	upper	0	634	ses-1	814
sub-23	1	49	uncrossed	different	different	800	left	lower	right	upper	0	681	ses-1	815
sub-23	1	50	uncrossed	different	same	100	left	lower	right	lower	0	666	ses-1	816
sub-23	1	51	uncrossed	same	different	300	right	upper	right	lower	0	754	ses-1	817
sub-23	1	52	uncrossed	different	different	300	right	upper	left	lower	0	646	ses-1	818
sub-23	1	53	uncrossed	different	same	300	right	lower	left	lower	0	1423	ses-1	819
sub-23	1	54	uncrossed	same	same	100	left	lower	left	lower	0	753	ses-1	820
sub-23	1	55	uncrossed	different	same	50	left	lower	right	lower	0	810	ses-1	821
sub-23	1	56	uncrossed	different	same	800	left	lower	right	lower	0	654	ses-1	822
sub-23	1	57	uncrossed	different	different	100	right	upper	left	lower	0	748	ses-1	823
sub-23	1	58	uncrossed	same	same	800	left	lower	left	lower	0	647	ses-1	824
sub-23	1	59	uncrossed	same	same	300	left	lower	left	lower	0	656	ses-1	825
sub-23	1	60	uncrossed	different	different	100	left	upper	right	lower	0	719	ses-1	826
sub-23	1	61	uncrossed	same	same	800	right	lower	right	lower	0	806	ses-1	827
sub-23	1	62	uncrossed	same	same	100	right	lower	right	lower	0	720	ses-1	828
sub-23	1	63	uncrossed	same	same	50	left	lower	left	lower	0	1180	ses-1	829
sub-23	1	64	uncrossed	different	same	50	left	lower	right	lower	0	1299	ses-1	830
sub-23	1	65	uncrossed	different	different	800	left	upper	right	lower	0	789	ses-1	831
sub-23	1	66	uncrossed	same	same	50	right	lower	right	lower	0	866	ses-1	832
sub-23	1	67	uncrossed	different	different	100	right	lower	left	upper	0	602	ses-1	833
sub-23	1	68	uncrossed	same	same	800	right	lower	right	lower	0	1334	ses-1	834
sub-23	1	70	uncrossed	different	different	50	right	upper	left	lower	0	1992	ses-1	835
sub-23	1	71	uncrossed	same	same	300	right	lower	right	lower	0	1015	ses-1	836
sub-23	1	72	uncrossed	different	different	50	right	upper	left	lower	0	831	ses-1	837
sub-23	1	73	uncrossed	same	same	800	right	lower	right	lower	0	813	ses-1	838
sub-23	1	74	uncrossed	same	same	300	right	lower	right	lower	0	682	ses-1	839
sub-23	1	75	uncrossed	different	different	100	left	upper	right	lower	0	642	ses-1	840
sub-23	1	76	uncrossed	different	different	300	left	lower	right	upper	0	583	ses-1	841
sub-23	1	77	uncrossed	same	different	800	left	lower	left	upper	1	610	ses-1	842
sub-23	1	78	uncrossed	same	same	300	left	lower	left	lower	0	1367	ses-1	843
sub-23	1	79	uncrossed	same	same	50	left	lower	left	lower	0	1545	ses-1	844
sub-23	1	80	uncrossed	different	same	100	left	lower	right	lower	0	721	ses-1	845
sub-23	1	81	uncrossed	different	different	300	right	lower	left	upper	0	1180	ses-1	846
sub-23	1	82	uncrossed	different	same	800	right	lower	left	lower	0	672	ses-1	847
sub-23	1	83	uncrossed	different	different	50	left	upper	right	lower	0	934	ses-1	848
sub-23	1	84	uncrossed	different	same	50	right	lower	left	lower	0	651	ses-1	849
sub-23	1	85	uncrossed	different	different	100	left	upper	right	lower	0	748	ses-1	850
sub-23	1	86	uncrossed	different	same	800	left	lower	right	lower	0	761	ses-1	851
sub-23	1	87	uncrossed	same	different	100	right	lower	right	upper	0	755	ses-1	852
sub-23	1	88	uncrossed	different	same	300	left	lower	right	lower	0	673	ses-1	853
sub-23	1	89	uncrossed	different	same	50	right	lower	left	lower	0	613	ses-1	854
sub-23	1	90	uncrossed	different	same	100	right	lower	left	lower	0	599	ses-1	855
sub-23	1	91	uncrossed	same	same	300	left	lower	left	lower	0	808	ses-1	856
sub-23	1	92	uncrossed	same	same	800	left	lower	left	lower	0	1089	ses-1	857
sub-23	1	93	uncrossed	different	different	50	left	upper	right	lower	0	961	ses-1	858
sub-23	1	94	uncrossed	different	different	300	right	upper	left	lower	0	810	ses-1	859
sub-23	1	95	uncrossed	same	different	300	right	lower	right	upper	0	932	ses-1	860
sub-23	1	96	uncrossed	different	different	800	left	upper	right	lower	0	743	ses-1	861
sub-23	1	97	uncrossed	different	same	800	right	lower	left	lower	0	692	ses-1	862
sub-23	1	98	uncrossed	different	different	300	right	upper	left	lower	0	1332	ses-1	863
sub-23	1	99	uncrossed	different	different	800	right	upper	left	lower	0	575	ses-1	864
sub-23	1	100	uncrossed	same	same	50	right	lower	right	lower	0	829	ses-1	865
sub-23	1	101	uncrossed	same	same	50	right	lower	right	lower	0	777	ses-1	866
sub-23	1	102	uncrossed	same	different	100	left	upper	left	lower	0	1048	ses-1	867
sub-23	1	103	uncrossed	same	different	300	left	lower	left	upper	1	798	ses-1	868
sub-23	1	104	uncrossed	different	different	100	right	lower	left	upper	0	708	ses-1	869
sub-23	1	105	uncrossed	different	same	50	left	lower	right	lower	0	993	ses-1	870
sub-23	1	106	uncrossed	different	same	100	left	lower	right	lower	0	795	ses-1	871
sub-23	1	107	uncrossed	different	different	100	right	lower	left	upper	0	810	ses-1	872
sub-23	1	108	uncrossed	different	different	100	left	lower	right	upper	0	813	ses-1	873
sub-23	1	109	uncrossed	same	same	300	left	lower	left	lower	0	762	ses-1	874
sub-23	1	110	uncrossed	different	different	800	left	lower	right	upper	0	708	ses-1	875
sub-23	1	111	uncrossed	same	same	50	right	lower	right	lower	0	1504	ses-1	876
sub-23	1	112	uncrossed	different	same	300	right	lower	left	lower	0	702	ses-1	877
sub-23	1	113	uncrossed	different	same	100	left	lower	right	lower	0	1104	ses-1	878
sub-23	1	114	uncrossed	same	different	100	right	upper	right	lower	0	744	ses-1	879
sub-23	1	115	uncrossed	same	different	50	right	upper	right	lower	0	975	ses-1	880
sub-23	1	116	uncrossed	same	same	100	right	lower	right	lower	0	827	ses-1	881
sub-23	1	117	uncrossed	different	different	800	right	upper	left	lower	0	767	ses-1	882
sub-23	1	118	uncrossed	different	different	50	right	upper	left	lower	0	1328	ses-1	883
sub-23	1	119	uncrossed	same	different	100	left	upper	left	lower	0	1036	ses-1	884
sub-23	1	120	uncrossed	different	same	800	right	lower	left	lower	0	823	ses-1	885
sub-23	1	121	uncrossed	different	different	50	right	lower	left	upper	0	911	ses-1	886
sub-23	1	122	uncrossed	same	same	300	right	lower	right	lower	0	967	ses-1	887
sub-23	1	123	uncrossed	same	same	800	right	lower	right	lower	0	1443	ses-1	888
sub-23	1	124	uncrossed	different	different	800	left	upper	right	lower	0	1295	ses-1	889
sub-23	1	125	uncrossed	different	different	300	right	upper	left	lower	0	1492	ses-1	890
sub-23	1	126	uncrossed	different	same	50	left	lower	right	lower	0	893	ses-1	891
sub-23	1	127	uncrossed	same	same	300	right	lower	right	lower	0	1699	ses-1	892
sub-23	1	128	uncrossed	different	different	50	left	lower	right	upper	0	1247	ses-1	893
sub-23	1	129	uncrossed	same	different	50	left	lower	left	upper	0	2349	ses-1	894
sub-23	1	130	uncrossed	same	same	100	left	lower	left	lower	0	760	ses-1	895
sub-23	1	131	uncrossed	same	different	50	right	lower	right	upper	0	1127	ses-1	896
sub-23	1	132	uncrossed	same	same	50	right	lower	right	lower	0	1055	ses-1	897
sub-23	1	133	uncrossed	same	same	100	right	lower	right	lower	0	1033	ses-1	898
sub-23	1	134	uncrossed	different	different	50	left	lower	right	upper	0	677	ses-1	899
sub-23	1	135	uncrossed	different	same	800	left	lower	right	lower	0	858	ses-1	900
sub-23	1	136	uncrossed	different	different	50	left	upper	right	lower	0	939	ses-1	901
sub-23	1	137	uncrossed	same	same	300	left	lower	left	lower	0	835	ses-1	902
sub-23	1	138	uncrossed	different	different	100	right	upper	left	lower	0	776	ses-1	903
sub-23	1	139	uncrossed	different	same	50	right	lower	left	lower	0	803	ses-1	904
sub-23	1	140	uncrossed	different	same	300	left	lower	right	lower	0	1142	ses-1	905
sub-23	1	141	uncrossed	different	different	300	left	upper	right	lower	0	630	ses-1	906
sub-23	1	142	uncrossed	different	same	100	right	lower	left	lower	0	672	ses-1	907
sub-23	1	143	uncrossed	different	same	100	right	lower	left	lower	0	808	ses-1	908
sub-23	1	144	uncrossed	same	same	300	right	lower	right	lower	0	753	ses-1	909
sub-23	1	145	uncrossed	different	different	800	right	upper	left	lower	0	872	ses-1	910
sub-23	1	146	uncrossed	same	different	800	left	lower	left	upper	0	653	ses-1	911
sub-23	1	147	uncrossed	same	same	50	left	lower	left	lower	0	978	ses-1	912
sub-23	1	148	uncrossed	same	same	800	left	lower	left	lower	0	780	ses-1	913
sub-23	1	149	uncrossed	same	different	100	left	upper	left	lower	0	849	ses-1	914
sub-23	1	150	uncrossed	same	same	800	left	lower	left	lower	0	625	ses-1	915
sub-23	1	151	uncrossed	different	same	50	left	lower	right	lower	0	687	ses-1	916
sub-23	1	152	uncrossed	same	same	100	left	lower	left	lower	0	1630	ses-1	917
sub-23	1	153	uncrossed	different	different	50	right	lower	left	upper	0	653	ses-1	918
sub-23	1	154	uncrossed	different	same	300	left	lower	right	lower	0	592	ses-1	919
sub-23	1	155	uncrossed	same	different	100	right	lower	right	upper	0	1470	ses-1	920
sub-23	1	156	uncrossed	different	different	100	left	lower	right	upper	0	803	ses-1	921
sub-23	1	157	uncrossed	same	same	800	left	lower	left	lower	0	688	ses-1	922
sub-23	1	158	uncrossed	same	same	100	left	lower	left	lower	0	861	ses-1	923
sub-23	1	159	uncrossed	same	same	50	right	lower	right	lower	0	751	ses-1	924
sub-23	1	160	uncrossed	different	same	50	right	lower	left	lower	0	887	ses-1	925
sub-23	1	161	uncrossed	same	different	800	left	upper	left	lower	0	676	ses-1	926
sub-23	1	162	uncrossed	same	different	100	left	upper	left	lower	0	1354	ses-1	927
sub-23	1	163	uncrossed	same	different	300	right	lower	right	upper	0	699	ses-1	928
sub-23	1	164	uncrossed	same	different	100	right	upper	right	lower	0	896	ses-1	929
sub-23	1	165	uncrossed	different	different	300	left	lower	right	upper	0	741	ses-1	930
sub-23	1	166	uncrossed	same	different	300	right	upper	right	lower	0	682	ses-1	931
sub-23	1	167	uncrossed	same	different	50	left	lower	left	upper	0	1357	ses-1	932
sub-23	1	168	uncrossed	same	same	800	right	lower	right	lower	0	1848	ses-1	933
sub-23	1	169	uncrossed	same	same	100	right	lower	right	lower	0	714	ses-1	934
sub-23	1	170	uncrossed	different	same	800	left	lower	right	lower	0	1031	ses-1	935
sub-23	1	171	uncrossed	different	same	800	left	lower	right	lower	0	1910	ses-1	936
sub-23	1	172	uncrossed	same	different	800	right	lower	right	upper	0	2241	ses-1	937
sub-23	1	173	uncrossed	different	different	300	left	lower	right	upper	0	1553	ses-1	938
sub-23	1	174	uncrossed	same	different	800	left	upper	left	lower	0	804	ses-1	939
sub-23	1	175	uncrossed	same	different	300	left	lower	left	upper	0	868	ses-1	940
sub-23	1	176	uncrossed	different	different	800	right	lower	left	upper	0	623	ses-1	941
sub-23	1	177	uncrossed	different	different	300	left	lower	right	upper	0	608	ses-1	942
sub-23	1	178	uncrossed	same	same	100	right	lower	right	lower	0	697	ses-1	943
sub-23	1	179	uncrossed	same	different	50	right	upper	right	lower	0	584	ses-1	944
sub-23	1	180	uncrossed	same	same	800	right	lower	right	lower	0	615	ses-1	945
sub-23	1	181	uncrossed	same	same	50	right	lower	right	lower	0	578	ses-1	946
sub-23	1	182	uncrossed	different	different	100	right	upper	left	lower	0	768	ses-1	947
sub-23	1	183	uncrossed	same	same	50	left	lower	left	lower	0	1361	ses-1	948
sub-23	1	184	uncrossed	different	same	100	right	lower	left	lower	0	1888	ses-1	949
sub-23	1	185	uncrossed	different	different	100	left	lower	right	upper	0	581	ses-1	950
sub-23	1	186	uncrossed	same	same	300	left	lower	left	lower	0	661	ses-1	951
sub-23	1	187	uncrossed	different	same	300	left	lower	right	lower	0	741	ses-1	952
sub-23	1	188	uncrossed	same	same	100	right	lower	right	lower	0	702	ses-1	953
sub-23	1	189	uncrossed	same	different	300	left	upper	left	lower	0	1821	ses-1	954
sub-23	1	190	uncrossed	same	same	800	right	lower	right	lower	0	690	ses-1	955
sub-23	1	191	uncrossed	different	same	50	left	lower	right	lower	0	690	ses-1	956
sub-23	1	192	uncrossed	same	different	300	right	upper	right	lower	0	1058	ses-1	957
sub-23	1	193	uncrossed	same	different	300	left	lower	left	upper	0	790	ses-1	958
sub-23	1	194	uncrossed	same	different	50	right	upper	right	lower	0	590	ses-1	959
sub-23	1	195	uncrossed	same	different	300	right	upper	right	lower	0	492	ses-1	960
sub-23	1	196	uncrossed	same	same	800	right	lower	right	lower	0	510	ses-1	961
sub-23	1	197	uncrossed	different	different	300	right	lower	left	upper	0	696	ses-1	962
sub-23	1	198	uncrossed	different	different	50	left	lower	right	upper	0	1119	ses-1	963
sub-23	1	199	uncrossed	different	same	100	right	lower	left	lower	0	736	ses-1	964
sub-23	1	200	uncrossed	different	same	50	right	lower	left	lower	0	523	ses-1	965
sub-23	1	201	uncrossed	different	same	300	right	lower	left	lower	0	595	ses-1	966
sub-23	1	202	uncrossed	different	same	800	right	lower	left	lower	0	791	ses-1	967
sub-23	1	203	uncrossed	different	same	50	left	lower	right	lower	0	586	ses-1	968
sub-23	1	204	uncrossed	same	same	800	right	lower	right	lower	0	765	ses-1	969
sub-23	1	205	uncrossed	same	same	50	right	lower	right	lower	0	945	ses-1	970
sub-23	1	206	uncrossed	different	same	100	left	lower	right	lower	0	757	ses-1	971
sub-23	1	207	uncrossed	different	different	800	right	upper	left	lower	0	655	ses-1	972
sub-23	1	208	uncrossed	same	same	800	left	lower	left	lower	0	681	ses-1	973
sub-23	1	209	uncrossed	same	different	50	right	lower	right	upper	1	949	ses-1	974
sub-23	1	210	uncrossed	same	different	300	right	lower	right	upper	0	579	ses-1	975
sub-23	1	211	uncrossed	different	same	800	left	lower	right	lower	0	793	ses-1	976
sub-23	1	212	uncrossed	different	different	100	left	lower	right	upper	0	697	ses-1	977
sub-23	1	213	uncrossed	same	same	300	right	lower	right	lower	0	707	ses-1	978
sub-23	1	214	uncrossed	different	different	800	right	upper	left	lower	0	727	ses-1	979
sub-23	1	215	uncrossed	same	same	100	left	lower	left	lower	0	843	ses-1	980
sub-23	1	216	uncrossed	same	different	800	left	upper	left	lower	0	1340	ses-1	981
sub-23	1	217	uncrossed	different	same	50	left	lower	right	lower	0	909	ses-1	982
sub-23	1	218	uncrossed	same	same	800	right	lower	right	lower	0	701	ses-1	983
sub-23	1	219	uncrossed	same	same	800	right	lower	right	lower	0	1579	ses-1	984
sub-23	1	220	uncrossed	different	same	50	right	lower	left	lower	0	863	ses-1	985
sub-23	1	221	uncrossed	different	same	100	left	lower	right	lower	0	1630	ses-1	986
sub-23	1	222	uncrossed	same	same	100	right	lower	right	lower	0	793	ses-1	987
sub-23	1	223	uncrossed	different	same	800	right	lower	left	lower	0	739	ses-1	988
sub-23	1	224	uncrossed	same	same	100	right	lower	right	lower	0	1287	ses-1	989
sub-23	1	225	uncrossed	different	different	100	right	lower	left	upper	0	1008	ses-1	990
sub-23	1	226	uncrossed	same	different	100	right	lower	right	upper	0	783	ses-1	991
sub-23	1	227	uncrossed	different	same	100	right	lower	left	lower	0	734	ses-1	992
sub-23	1	228	uncrossed	same	same	100	right	lower	right	lower	0	644	ses-1	993
sub-23	1	229	uncrossed	different	same	800	right	lower	left	lower	0	654	ses-1	994
sub-23	1	230	uncrossed	same	same	300	left	lower	left	lower	0	746	ses-1	995
sub-23	1	231	uncrossed	different	same	300	left	lower	right	lower	0	803	ses-1	996
sub-23	1	232	uncrossed	different	different	100	right	lower	left	upper	0	693	ses-1	997
sub-23	1	233	uncrossed	different	different	300	left	lower	right	upper	0	579	ses-1	998
sub-23	1	234	uncrossed	different	different	300	left	upper	right	lower	0	538	ses-1	999
sub-23	1	235	uncrossed	different	same	50	right	lower	left	lower	0	582	ses-1	1000
sub-23	1	236	uncrossed	different	different	100	right	upper	left	lower	0	540	ses-1	1001
sub-23	1	237	uncrossed	different	different	800	left	upper	right	lower	0	560	ses-1	1002
sub-23	1	238	uncrossed	same	different	800	right	lower	right	upper	0	727	ses-1	1003
sub-23	1	239	uncrossed	same	same	300	left	lower	left	lower	0	753	ses-1	1004
sub-23	1	240	uncrossed	same	different	100	left	upper	left	lower	0	797	ses-1	1005
sub-23	1	241	uncrossed	different	different	50	left	upper	right	lower	0	866	ses-1	1006
sub-23	1	242	uncrossed	same	different	300	left	lower	left	upper	0	568	ses-1	1007
sub-23	1	243	uncrossed	different	same	100	left	lower	right	lower	0	579	ses-1	1008
sub-23	1	244	uncrossed	same	different	100	left	lower	left	upper	0	604	ses-1	1009
sub-23	1	245	uncrossed	different	different	50	left	lower	right	upper	0	584	ses-1	1010
sub-23	1	246	uncrossed	same	same	300	right	lower	right	lower	0	572	ses-1	1011
sub-23	1	247	uncrossed	different	different	300	left	upper	right	lower	0	574	ses-1	1012
sub-23	1	248	uncrossed	different	same	100	right	lower	left	lower	0	557	ses-1	1013
sub-23	1	249	uncrossed	different	same	800	right	lower	left	lower	0	640	ses-1	1014
sub-23	1	250	uncrossed	different	different	50	left	lower	right	upper	0	1639	ses-1	1015
sub-23	1	251	uncrossed	different	different	50	right	lower	left	upper	0	683	ses-1	1016
sub-23	1	252	uncrossed	same	same	100	right	lower	right	lower	0	648	ses-1	1017
sub-23	1	253	uncrossed	same	different	50	left	upper	left	lower	0	886	ses-1	1018
sub-23	1	254	uncrossed	different	same	800	right	lower	left	lower	0	578	ses-1	1019
sub-23	1	255	uncrossed	same	different	100	left	lower	left	upper	0	899	ses-1	1020
sub-23	1	256	uncrossed	same	same	300	left	lower	left	lower	0	1594	ses-1	1021
sub-23	1	257	uncrossed	different	same	800	left	lower	right	lower	0	1062	ses-1	1022
sub-23	1	258	uncrossed	same	same	100	left	lower	left	lower	0	1645	ses-1	1023
sub-23	1	259	uncrossed	different	same	800	left	lower	right	lower	0	737	ses-1	1024
sub-23	1	260	uncrossed	same	different	300	right	lower	right	upper	0	835	ses-1	1025
sub-23	1	261	uncrossed	same	different	100	right	upper	right	lower	0	815	ses-1	1026
sub-23	1	262	uncrossed	same	same	50	right	lower	right	lower	0	625	ses-1	1027
sub-23	1	263	uncrossed	different	different	800	left	lower	right	upper	0	886	ses-1	1028
sub-23	1	264	uncrossed	different	same	50	left	lower	right	lower	0	1882	ses-1	1029
sub-23	1	265	uncrossed	different	same	300	right	lower	left	lower	0	597	ses-1	1030
sub-23	1	266	uncrossed	same	different	50	right	upper	right	lower	0	646	ses-1	1031
sub-23	1	267	uncrossed	same	same	300	right	lower	right	lower	0	2450	ses-1	1032
sub-23	1	268	uncrossed	different	same	100	right	lower	left	lower	0	606	ses-1	1033
sub-23	1	269	uncrossed	different	same	300	left	lower	right	lower	0	1452	ses-1	1034
sub-23	1	270	uncrossed	different	same	300	right	lower	left	lower	0	601	ses-1	1035
sub-23	1	271	uncrossed	same	same	100	left	lower	left	lower	0	867	ses-1	1036
sub-23	1	272	uncrossed	same	same	50	left	lower	left	lower	0	1417	ses-1	1037
sub-23	1	273	uncrossed	same	different	300	right	lower	right	upper	0	724	ses-1	1038
sub-23	1	274	uncrossed	different	same	300	right	lower	left	lower	0	591	ses-1	1039
sub-23	1	275	uncrossed	different	same	50	left	lower	right	lower	0	564	ses-1	1040
sub-23	1	276	uncrossed	different	different	800	left	lower	right	upper	0	571	ses-1	1041
sub-23	1	277	uncrossed	same	different	50	left	upper	left	lower	0	658	ses-1	1042
sub-23	1	278	uncrossed	same	different	100	left	lower	left	upper	0	935	ses-1	1043
sub-23	1	279	uncrossed	different	same	100	left	lower	right	lower	0	651	ses-1	1044
sub-23	1	280	uncrossed	same	different	300	left	upper	left	lower	0	661	ses-1	1045
sub-23	1	281	uncrossed	different	different	50	right	upper	left	lower	0	754	ses-1	1046
sub-23	1	282	uncrossed	different	different	50	right	lower	left	upper	0	1065	ses-1	1047
sub-23	1	283	uncrossed	same	different	50	right	upper	right	lower	0	807	ses-1	1048
sub-23	1	284	uncrossed	same	different	800	left	upper	left	lower	0	1460	ses-1	1049
sub-23	1	285	uncrossed	different	same	50	left	lower	right	lower	0	1020	ses-1	1050
sub-23	1	286	uncrossed	same	same	100	right	lower	right	lower	0	680	ses-1	1051
sub-23	1	287	uncrossed	same	same	300	left	lower	left	lower	0	1586	ses-1	1052
sub-23	1	288	uncrossed	same	same	100	left	lower	left	lower	0	1048	ses-1	1053
sub-23	1	289	uncrossed	different	different	50	right	upper	left	lower	0	810	ses-1	1054
sub-23	1	290	uncrossed	different	different	800	right	lower	left	upper	0	565	ses-1	1055
sub-23	1	291	uncrossed	same	different	50	left	upper	left	lower	1	626	ses-1	1056
sub-23	1	292	uncrossed	different	same	800	right	lower	left	lower	0	625	ses-1	1057
sub-23	1	293	uncrossed	same	same	50	left	lower	left	lower	0	1189	ses-1	1058
sub-23	1	294	uncrossed	same	different	50	left	lower	left	upper	0	809	ses-1	1059
sub-23	1	295	uncrossed	same	same	800	left	lower	left	lower	0	724	ses-1	1060
sub-23	1	296	uncrossed	same	same	50	left	lower	left	lower	0	1115	ses-1	1061
sub-23	1	297	uncrossed	different	same	300	right	lower	left	lower	0	1005	ses-1	1062
sub-23	1	298	uncrossed	same	same	50	left	lower	left	lower	0	1687	ses-1	1063
sub-23	1	299	uncrossed	different	same	50	right	lower	left	lower	0	899	ses-1	1064
sub-23	1	300	uncrossed	different	same	300	left	lower	right	lower	0	644	ses-1	1065
sub-23	1	301	uncrossed	different	different	100	right	upper	left	lower	0	730	ses-1	1066
sub-23	1	302	uncrossed	same	same	300	right	lower	right	lower	0	718	ses-1	1067
sub-23	1	303	uncrossed	same	different	50	right	lower	right	upper	0	901	ses-1	1068
sub-23	1	304	uncrossed	same	same	300	right	lower	right	lower	0	719	ses-1	1069
sub-23	1	305	uncrossed	same	different	100	right	upper	right	lower	0	764	ses-1	1070
sub-23	1	306	uncrossed	different	different	300	left	upper	right	lower	0	649	ses-1	1071
sub-23	1	307	uncrossed	different	different	300	left	upper	right	lower	0	720	ses-1	1072
sub-23	1	308	uncrossed	same	different	800	right	upper	right	lower	0	951	ses-1	1073
sub-23	1	309	uncrossed	different	same	100	left	lower	right	lower	0	912	ses-1	1074
sub-23	1	310	uncrossed	same	same	800	right	lower	right	lower	0	1385	ses-1	1075
sub-23	1	311	uncrossed	same	same	800	left	lower	left	lower	0	976	ses-1	1076
sub-23	1	312	uncrossed	different	same	300	right	lower	left	lower	0	1149	ses-1	1077
sub-23	1	313	uncrossed	different	same	300	left	lower	right	lower	0	951	ses-1	1078
sub-23	1	314	uncrossed	same	different	300	left	upper	left	lower	0	791	ses-1	1079
sub-23	1	315	uncrossed	same	different	800	left	upper	left	lower	0	957	ses-1	1080
sub-23	1	316	uncrossed	different	different	300	left	lower	right	upper	0	954	ses-1	1081
sub-23	1	317	uncrossed	same	different	100	right	lower	right	upper	0	930	ses-1	1082
sub-23	1	318	uncrossed	different	different	800	left	upper	right	lower	0	2207	ses-1	1083
sub-23	1	319	uncrossed	different	different	100	right	lower	left	upper	0	918	ses-1	1084
sub-23	1	320	uncrossed	same	different	100	left	upper	left	lower	0	691	ses-1	1085
sub-23	1	321	uncrossed	different	different	100	left	upper	right	lower	0	1893	ses-1	1086
sub-23	1	322	uncrossed	same	different	50	right	lower	right	upper	0	771	ses-1	1087
sub-23	1	323	uncrossed	same	different	300	left	upper	left	lower	0	572	ses-1	1088
sub-23	1	324	uncrossed	same	same	50	right	lower	right	lower	0	899	ses-1	1089
sub-23	1	325	uncrossed	same	same	100	left	lower	left	lower	0	737	ses-1	1090
sub-23	1	326	uncrossed	different	different	50	right	upper	left	lower	0	642	ses-1	1091
sub-23	1	327	uncrossed	different	same	100	right	lower	left	lower	0	1477	ses-1	1092
sub-23	1	328	uncrossed	same	different	800	left	lower	left	upper	0	781	ses-1	1093
sub-23	1	329	uncrossed	same	different	50	left	lower	left	upper	0	1684	ses-1	1094
sub-23	1	330	uncrossed	same	different	800	right	upper	right	lower	0	1839	ses-1	1095
sub-23	1	331	uncrossed	same	different	50	right	lower	right	upper	0	1328	ses-1	1096
sub-23	1	332	uncrossed	same	different	50	right	lower	right	upper	0	1070	ses-1	1097
sub-23	1	333	uncrossed	same	different	300	right	upper	right	lower	0	620	ses-1	1098
sub-23	1	334	uncrossed	different	different	300	right	lower	left	upper	0	716	ses-1	1099
sub-23	1	335	uncrossed	different	same	50	right	lower	left	lower	0	1828	ses-1	1100
sub-23	1	336	uncrossed	same	same	300	left	lower	left	lower	0	2048	ses-1	1101
sub-23	1	337	uncrossed	different	same	300	right	lower	left	lower	0	802	ses-1	1102
sub-23	1	338	uncrossed	same	different	800	right	lower	right	upper	0	617	ses-1	1103
sub-23	1	339	uncrossed	different	different	300	right	lower	left	upper	0	700	ses-1	1104
sub-23	1	340	uncrossed	same	different	300	left	upper	left	lower	0	758	ses-1	1105
sub-23	1	341	uncrossed	different	different	800	right	lower	left	upper	0	609	ses-1	1106
sub-23	1	342	uncrossed	same	same	800	left	lower	left	lower	0	641	ses-1	1107
sub-23	1	343	uncrossed	same	different	800	left	lower	left	upper	0	1390	ses-1	1108
sub-23	1	344	uncrossed	different	different	800	right	lower	left	upper	0	624	ses-1	1109
sub-23	1	345	uncrossed	same	different	50	left	upper	left	lower	0	1215	ses-1	1110
sub-23	1	346	uncrossed	same	different	800	right	lower	right	upper	0	1662	ses-1	1111
sub-23	1	347	uncrossed	different	same	50	right	lower	left	lower	0	764	ses-1	1112
sub-23	1	348	uncrossed	different	different	50	left	lower	right	upper	0	780	ses-1	1113
sub-23	1	349	uncrossed	different	different	50	left	upper	right	lower	0	615	ses-1	1114
sub-23	1	350	uncrossed	different	same	100	right	lower	left	lower	0	684	ses-1	1115
sub-23	1	351	uncrossed	same	same	50	right	lower	right	lower	0	591	ses-1	1116
sub-23	1	352	uncrossed	different	same	300	left	lower	right	lower	0	2009	ses-1	1117
sub-23	1	353	uncrossed	same	different	800	right	lower	right	upper	0	635	ses-1	1118
sub-23	1	354	uncrossed	different	same	100	right	lower	left	lower	0	731	ses-1	1119
sub-23	1	355	uncrossed	different	different	300	right	upper	left	lower	0	2266	ses-1	1120
sub-23	1	356	uncrossed	different	same	100	left	lower	right	lower	0	887	ses-1	1121
sub-23	1	357	uncrossed	different	different	100	left	lower	right	upper	0	697	ses-1	1122
sub-23	1	358	uncrossed	different	different	800	left	upper	right	lower	0	692	ses-1	1123
sub-23	1	359	uncrossed	different	different	50	right	lower	left	upper	0	614	ses-1	1124
sub-23	1	360	uncrossed	different	different	800	right	lower	left	upper	0	533	ses-1	1125
sub-23	1	361	uncrossed	same	different	300	right	lower	right	upper	0	682	ses-1	1126
sub-23	1	362	uncrossed	different	same	300	left	lower	right	lower	0	756	ses-1	1127
sub-23	1	363	uncrossed	same	same	800	left	lower	left	lower	0	593	ses-1	1128
sub-23	1	364	uncrossed	same	same	800	left	lower	left	lower	0	796	ses-1	1129
sub-23	1	365	uncrossed	same	same	100	left	lower	left	lower	0	671	ses-1	1130
sub-23	1	366	uncrossed	same	different	50	left	lower	left	upper	0	1577	ses-1	1131
sub-23	1	367	uncrossed	different	different	800	right	upper	left	lower	0	643	ses-1	1132
sub-23	1	368	uncrossed	different	different	800	left	lower	right	upper	0	712	ses-1	1133
sub-23	1	369	uncrossed	same	different	300	left	lower	left	upper	0	572	ses-1	1134
sub-23	1	370	uncrossed	different	different	100	left	upper	right	lower	0	904	ses-1	1135
sub-23	1	372	uncrossed	same	same	300	right	lower	right	lower	0	616	ses-1	1136
sub-23	1	373	uncrossed	different	same	800	left	lower	right	lower	0	571	ses-1	1137
sub-23	1	374	uncrossed	different	same	100	left	lower	right	lower	0	578	ses-1	1138
sub-23	1	375	uncrossed	different	different	300	left	upper	right	lower	0	683	ses-1	1139
sub-23	1	376	uncrossed	same	same	100	left	lower	left	lower	0	657	ses-1	1140
sub-23	1	377	uncrossed	different	same	50	right	lower	left	lower	0	648	ses-1	1141
sub-23	1	378	uncrossed	same	different	800	right	upper	right	lower	0	687	ses-1	1142
sub-23	1	379	uncrossed	same	different	100	left	lower	left	upper	1	726	ses-1	1143
sub-23	1	380	uncrossed	same	different	800	left	lower	left	upper	0	1071	ses-1	1144
sub-23	1	381	uncrossed	different	different	300	right	upper	left	lower	0	1483	ses-1	1145
sub-23	1	382	uncrossed	same	different	800	left	lower	left	upper	0	662	ses-1	1146
sub-23	1	383	uncrossed	same	different	50	left	lower	left	upper	0	1432	ses-1	1147
sub-23	1	384	uncrossed	different	same	50	left	lower	right	lower	0	1303	ses-1	1148
sub-23	1	385	uncrossed	different	same	800	left	lower	right	lower	0	996	ses-1	1149
sub-23	1	386	uncrossed	same	different	800	right	lower	right	upper	0	2526	ses-1	1150
sub-23	1	387	uncrossed	different	different	300	right	lower	left	upper	0	1750	ses-1	1151
sub-23	1	388	uncrossed	different	different	100	left	lower	right	upper	0	2186	ses-1	1152
sub-23	2	2	uncrossed	same	same	100	left	lower	left	lower	0	1703	ses-1	1153
sub-23	2	3	uncrossed	same	same	100	left	lower	left	lower	0	1003	ses-1	1154
sub-23	2	4	uncrossed	same	same	300	left	lower	left	lower	0	649	ses-1	1155
sub-23	2	5	uncrossed	same	different	300	left	lower	left	upper	0	648	ses-1	1156
sub-23	2	6	uncrossed	different	same	300	left	lower	right	lower	0	579	ses-1	1157
sub-23	2	7	uncrossed	different	same	50	right	lower	left	lower	0	1534	ses-1	1158
sub-23	2	8	uncrossed	different	different	300	right	lower	left	upper	0	641	ses-1	1159
sub-23	2	9	uncrossed	different	different	50	right	upper	left	lower	0	725	ses-1	1160
sub-23	2	10	uncrossed	different	different	300	right	upper	left	lower	0	639	ses-1	1161
sub-23	2	11	uncrossed	different	different	300	right	lower	left	upper	0	705	ses-1	1162
sub-23	2	12	uncrossed	same	same	800	left	lower	left	lower	0	894	ses-1	1163
sub-23	2	13	uncrossed	different	same	50	left	lower	right	lower	0	747	ses-1	1164
sub-23	2	14	uncrossed	same	different	50	right	upper	right	lower	0	741	ses-1	1165
sub-23	2	15	uncrossed	same	same	50	left	lower	left	lower	0	1061	ses-1	1166
sub-23	2	16	uncrossed	different	different	800	left	upper	right	lower	0	965	ses-1	1167
sub-23	2	17	uncrossed	same	different	100	right	upper	right	lower	0	776	ses-1	1168
sub-23	2	18	uncrossed	same	same	300	right	lower	right	lower	0	706	ses-1	1169
sub-23	2	19	uncrossed	different	same	800	right	lower	left	lower	0	1230	ses-1	1170
sub-23	2	20	uncrossed	same	different	800	right	lower	right	upper	0	933	ses-1	1171
sub-23	2	21	uncrossed	different	same	300	left	lower	right	lower	0	1179	ses-1	1172
sub-23	2	22	uncrossed	different	different	800	right	lower	left	upper	0	693	ses-1	1173
sub-23	2	23	uncrossed	same	same	800	left	lower	left	lower	0	711	ses-1	1174
sub-23	2	24	uncrossed	different	same	800	right	lower	left	lower	0	646	ses-1	1175
sub-23	2	25	uncrossed	same	different	800	left	upper	left	lower	0	757	ses-1	1176
sub-23	2	26	uncrossed	different	different	300	left	upper	right	lower	0	1935	ses-1	1177
sub-23	2	27	uncrossed	different	different	100	left	upper	right	lower	0	1073	ses-1	1178
sub-23	2	28	uncrossed	same	different	300	left	upper	left	lower	0	646	ses-1	1179
sub-23	2	29	uncrossed	different	different	100	left	upper	right	lower	1	911	ses-1	1180
sub-23	2	30	uncrossed	different	same	50	left	lower	right	lower	0	1711	ses-1	1181
sub-23	2	31	uncrossed	same	different	800	left	lower	left	upper	0	784	ses-1	1182
sub-23	2	32	uncrossed	same	different	300	right	upper	right	lower	0	753	ses-1	1183
sub-23	2	33	uncrossed	same	different	300	left	lower	left	upper	0	1349	ses-1	1184
sub-23	2	34	uncrossed	same	same	300	right	lower	right	lower	0	786	ses-1	1185
sub-23	2	35	uncrossed	same	different	100	left	upper	left	lower	0	661	ses-1	1186
sub-23	2	36	uncrossed	different	same	50	left	lower	right	lower	0	986	ses-1	1187
sub-23	2	37	uncrossed	same	same	100	left	lower	left	lower	0	703	ses-1	1188
sub-23	2	38	uncrossed	same	same	800	right	lower	right	lower	0	713	ses-1	1189
sub-23	2	39	uncrossed	same	same	100	right	lower	right	lower	0	572	ses-1	1190
sub-23	2	40	uncrossed	same	different	300	right	lower	right	upper	0	559	ses-1	1191
sub-23	2	41	uncrossed	same	different	800	left	upper	left	lower	0	855	ses-1	1192
sub-23	2	42	uncrossed	different	same	100	left	lower	right	lower	0	891	ses-1	1193
sub-23	2	43	uncrossed	different	same	100	right	lower	left	lower	1	786	ses-1	1194
sub-23	2	44	uncrossed	same	different	50	left	upper	left	lower	0	702	ses-1	1195
sub-23	2	45	uncrossed	different	same	800	left	lower	right	lower	0	682	ses-1	1196
sub-23	2	46	uncrossed	same	different	300	right	lower	right	upper	0	784	ses-1	1197
sub-23	2	47	uncrossed	different	same	800	left	lower	right	lower	0	799	ses-1	1198
sub-23	2	48	uncrossed	different	same	100	right	lower	left	lower	0	776	ses-1	1199
sub-23	2	49	uncrossed	different	different	800	right	upper	left	lower	0	1398	ses-1	1200
sub-23	2	50	uncrossed	different	different	50	left	upper	right	lower	0	1356	ses-1	1201
sub-23	2	51	uncrossed	same	different	800	left	lower	left	upper	0	855	ses-1	1202
sub-23	2	52	uncrossed	same	same	50	left	lower	left	lower	0	809	ses-1	1203
sub-23	2	53	uncrossed	same	same	50	right	lower	right	lower	0	1083	ses-1	1204
sub-23	2	54	uncrossed	same	same	100	left	lower	left	lower	0	666	ses-1	1205
sub-23	2	55	uncrossed	same	same	300	right	lower	right	lower	0	638	ses-1	1206
sub-23	2	56	uncrossed	different	different	300	left	upper	right	lower	0	858	ses-1	1207
sub-23	2	58	uncrossed	different	different	50	left	upper	right	lower	0	938	ses-1	1208
sub-23	2	59	uncrossed	different	different	100	right	lower	left	upper	0	695	ses-1	1209
sub-23	2	60	uncrossed	same	different	50	left	lower	left	upper	0	668	ses-1	1210
sub-23	2	61	uncrossed	different	same	50	right	lower	left	lower	0	1385	ses-1	1211
sub-23	2	62	uncrossed	different	different	100	left	lower	right	upper	0	917	ses-1	1212
sub-23	2	63	uncrossed	different	same	800	left	lower	right	lower	0	894	ses-1	1213
sub-23	2	64	uncrossed	same	same	50	right	lower	right	lower	0	791	ses-1	1214
sub-23	2	65	uncrossed	same	different	800	left	lower	left	upper	0	615	ses-1	1215
sub-23	2	66	uncrossed	different	different	50	right	upper	left	lower	0	994	ses-1	1216
sub-23	2	67	uncrossed	different	same	100	right	lower	left	lower	0	1472	ses-1	1217
sub-23	2	68	uncrossed	different	same	800	right	lower	left	lower	0	613	ses-1	1218
sub-23	2	69	uncrossed	same	different	800	right	upper	right	lower	0	1215	ses-1	1219
sub-23	2	70	uncrossed	same	different	300	left	upper	left	lower	1	842	ses-1	1220
sub-23	2	71	uncrossed	same	same	800	left	lower	left	lower	0	1536	ses-1	1221
sub-23	2	72	uncrossed	same	different	300	left	upper	left	lower	1	1119	ses-1	1222
sub-23	2	73	uncrossed	different	different	100	left	lower	right	upper	0	1067	ses-1	1223
sub-23	2	74	uncrossed	same	different	100	left	upper	left	lower	0	595	ses-1	1224
sub-23	2	75	uncrossed	same	different	300	right	lower	right	upper	0	609	ses-1	1225
sub-23	2	76	uncrossed	different	same	50	left	lower	right	lower	0	826	ses-1	1226
sub-23	2	77	uncrossed	different	different	100	left	lower	right	upper	0	1499	ses-1	1227
sub-23	2	78	uncrossed	same	different	800	right	lower	right	upper	0	1161	ses-1	1228
sub-23	2	79	uncrossed	different	same	800	left	lower	right	lower	0	1591	ses-1	1229
sub-23	2	80	uncrossed	same	different	100	right	upper	right	lower	0	772	ses-1	1230
sub-23	2	81	uncrossed	different	different	50	left	lower	right	upper	0	2001	ses-1	1231
sub-23	2	82	uncrossed	different	different	50	left	lower	right	upper	0	724	ses-1	1232
sub-23	2	83	uncrossed	same	same	800	left	lower	left	lower	0	780	ses-1	1233
sub-23	2	84	uncrossed	same	different	300	left	upper	left	lower	0	2220	ses-1	1234
sub-23	2	86	uncrossed	same	same	800	left	lower	left	lower	0	771	ses-1	1235
sub-23	2	87	uncrossed	different	different	800	right	lower	left	upper	0	819	ses-1	1236
sub-23	2	88	uncrossed	different	different	300	right	lower	left	upper	0	691	ses-1	1237
sub-23	2	89	uncrossed	different	different	300	right	upper	left	lower	0	1500	ses-1	1238
sub-23	2	90	uncrossed	different	different	100	left	upper	right	lower	0	935	ses-1	1239
sub-23	2	91	uncrossed	different	same	300	right	lower	left	lower	0	843	ses-1	1240
sub-23	2	92	uncrossed	different	same	300	right	lower	left	lower	0	631	ses-1	1241
sub-23	2	93	uncrossed	same	same	300	left	lower	left	lower	0	668	ses-1	1242
sub-23	2	94	uncrossed	same	same	800	right	lower	right	lower	0	656	ses-1	1243
sub-23	2	95	uncrossed	different	same	300	left	lower	right	lower	0	1213	ses-1	1244
sub-23	2	96	uncrossed	different	different	300	left	lower	right	upper	0	883	ses-1	1245
sub-23	2	97	uncrossed	same	same	100	left	lower	left	lower	0	877	ses-1	1246
sub-23	2	98	uncrossed	different	same	300	right	lower	left	lower	0	669	ses-1	1247
sub-23	2	99	uncrossed	same	same	800	left	lower	left	lower	0	673	ses-1	1248
sub-23	2	100	uncrossed	same	different	300	left	lower	left	upper	0	2448	ses-1	1249
sub-23	2	101	uncrossed	same	same	800	left	lower	left	lower	0	659	ses-1	1250
