participant_id	run	trial_in_run	posture	stim_side	stim_segment	soa	tactor1side	tactor1segment	tactor2side	tactor2segment	response_correct	rt	session	trial
sub-018	1	1	crossed	different	same	300	right	lower	left	lower	1	1090	ses-01	1
sub-018	1	2	crossed	same	same	100	left	lower	left	lower	1	773	ses-01	2
sub-018	1	3	crossed	same	different	100	left	lower	left	upper	1	1058	ses-01	3
sub-018	1	4	crossed	same	same	300	left	lower	left	lower	1	773	ses-01	4
sub-018	1	5	crossed	same	same	300	right	lower	right	lower	1	1116	ses-01	5
sub-018	1	6	crossed	different	different	100	right	lower	left	upper	1	1558	ses-01	6
sub-018	1	7	crossed	same	same	800	left	lower	left	lower	1	1141	ses-01	7
sub-018	1	8	crossed	different	same	800	left	lower	right	lower	1	1081	ses-01	8
sub-018	1	9	crossed	same	different	50	left	upper	left	lower	1	1631	ses-01	9
sub-018	1	10	crossed	same	same	100	right	lower	right	lower	1	1171	ses-01	10
sub-018	1	11	crossed	different	different	100	left	upper	right	lower	1	1525	ses-01	11
sub-018	1	12	crossed	same	different	50	left	lower	left	upper	1	1199	ses-01	12
sub-018	1	13	crossed	same	same	50	right	lower	right	lower	1	1587	ses-01	13
sub-018	1	14	crossed	different	same	300	right	lower	left	lower	1	1409	ses-01	14
sub-018	1	15	crossed	different	same	800	left	lower	right	lower	1	992	ses-01	15
sub-018	1	16	crossed	same	different	800	right	upper	right	lower	1	502	ses-01	16
sub-018	1	17	crossed	same	different	100	left	upper	left	lower	1	1537	ses-01	17
sub-018	1	18	crossed	different	same	800	right	lower	left	lower	1	982	ses-01	18
sub-018	1	19	crossed	different	same	50	right	lower	left	lower	0	1405	ses-01	19
sub-018	1	20	crossed	same	same	300	right	lower	right	lower	1	1428	ses-01	20
sub-018	1	21	crossed	different	same	100	left	lower	right	lower	0	1685	ses-01	21
sub-018	1	22	crossed	same	different	100	right	lower	right	upper	1	847	ses-01	22
sub-018	1	23	crossed	different	same	100	right	lower	left	lower	1	992	ses-01	23
sub-018	1	24	crossed	different	same	50	left	lower	right	lower	0	1636	ses-01	24
sub-018	1	25	crossed	different	same	300	left	lower	right	lower	1	1416	ses-01	25
sub-018	1	26	crossed	same	different	800	right	upper	right	lower	1	674	ses-01	26
sub-018	1	27	crossed	different	different	100	right	upper	left	lower	1	1008	ses-01	27
sub-018	1	28	crossed	different	same	800	left	lower	right	lower	0	552	ses-01	28
sub-018	1	29	crossed	same	different	300	left	lower	left	upper	1	2007	ses-01	29
sub-018	1	30	crossed	different	same	100	left	lower	right	lower	1	657	ses-01	30
sub-018	1	31	crossed	different	same	300	left	lower	right	lower	0	408	ses-01	31
sub-018	1	32	crossed	same	same	50	left	lower	left	lower	0	621	ses-01	32
sub-018	1	33	crossed	different	different	100	right	upper	left	lower	0	707	ses-01	33
sub-018	1	34	crossed	different	different	800	right	upper	left	lower	0	647	ses-01	34
sub-018	1	35	crossed	same	different	100	right	upper	right	lower	1	818	ses-01	35
sub-018	1	36	crossed	same	different	300	left	upper	left	lower	1	771	ses-01	36
sub-018	1	37	crossed	different	different	50	right	lower	left	upper	1	1739	ses-01	37
sub-018	1	38	crossed	different	different	100	left	upper	right	lower	0	1204	ses-01	38
sub-018	1	39	crossed	different	same	300	right	lower	left	lower	1	679	ses-01	39
sub-018	1	40	crossed	same	different	300	left	upper	left	lower	1	822	ses-01	40
sub-018	1	42	crossed	different	different	50	left	lower	right	upper	0	1554	ses-01	41
sub-018	1	43	crossed	same	same	100	right	lower	right	lower	0	1212	ses-01	42
sub-018	1	44	crossed	different	same	100	left	lower	right	lower	1	1599	ses-01	43
sub-018	1	45	crossed	different	same	300	right	lower	left	lower	1	972	ses-01	44
sub-018	1	46	crossed	same	different	300	right	upper	right	lower	1	876	ses-01	45
sub-018	1	47	crossed	different	different	50	right	lower	left	upper	1	1883	ses-01	46
sub-018	1	48	crossed	different	different	800	left	upper	right	lower	1	1159	ses-01	47
sub-018	1	49	crossed	same	same	800	left	lower	left	lower	1	2442	ses-01	48
sub-018	1	50	crossed	different	same	800	left	lower	right	lower	1	1252	ses-01	49
sub-018	1	51	crossed	same	same	300	right	lower	right	lower	1	1160	ses-01	50
sub-018	1	52	crossed	different	same	100	right	lower	left	lower	1	587	ses-01	51
sub-018	1	53	crossed	same	same	100	left	lower	left	lower	1	1270	ses-01	52
sub-018	1	54	crossed	same	same	300	left	lower	left	lower	1	1655	ses-01	53
sub-018	1	55	crossed	different	different	800	right	upper	left	lower	1	951	ses-01	54
sub-018	1	56	crossed	different	same	50	right	lower	left	lower	1	1286	ses-01	55
sub-018	1	57	crossed	same	same	50	right	lower	right	lower	1	1739	ses-01	56
sub-018	1	58	crossed	different	same	800	left	lower	right	lower	1	1460	ses-01	57
sub-018	1	59	crossed	different	same	800	right	lower	left	lower	0	1060	ses-01	58
sub-018	1	60	crossed	different	different	100	left	lower	right	upper	1	2771	ses-01	59
sub-018	1	61	crossed	same	same	100	right	lower	right	lower	1	793	ses-01	60
sub-018	1	62	crossed	different	same	50	right	lower	left	lower	0	1590	ses-01	61
sub-018	1	63	crossed	same	different	800	right	lower	right	upper	1	994	ses-01	62
sub-018	1	64	crossed	same	same	100	left	lower	left	lower	1	1615	ses-01	63
sub-018	1	65	crossed	different	same	300	right	lower	left	lower	0	1752	ses-01	64
sub-018	1	66	crossed	different	same	50	left	lower	right	lower	1	1784	ses-01	65
sub-018	1	67	crossed	same	same	50	right	lower	right	lower	1	1556	ses-01	66
sub-018	1	68	crossed	different	same	300	right	lower	left	lower	1	1217	ses-01	67
sub-018	1	69	crossed	same	different	300	left	upper	left	lower	1	1568	ses-01	68
sub-018	1	70	crossed	same	different	100	right	upper	right	lower	0	1966	ses-01	69
sub-018	1	71	crossed	different	different	300	right	lower	left	upper	1	1494	ses-01	70
sub-018	1	72	crossed	different	same	50	right	lower	left	lower	1	2172	ses-01	71
sub-018	1	74	crossed	different	same	800	right	lower	left	lower	1	1214	ses-01	72
sub-018	1	75	crossed	different	different	800	right	upper	left	lower	1	2422	ses-01	73
sub-018	1	76	crossed	same	same	300	right	lower	right	lower	1	2036	ses-01	74
sub-018	1	77	crossed	same	same	800	right	lower	right	lower	1	934	ses-01	75
sub-018	1	78	crossed	same	different	100	left	upper	left	lower	0	1580	ses-01	76
sub-018	1	79	crossed	same	same	300	right	lower	right	lower	1	906	ses-01	77
sub-018	1	80	crossed	different	same	300	left	lower	right	lower	0	1135	ses-01	78
sub-018	1	81	crossed	same	same	800	left	lower	left	lower	0	1618	ses-01	79
sub-018	1	82	crossed	same	different	800	left	upper	left	lower	1	909	ses-01	80
sub-018	1	83	crossed	same	same	100	left	lower	left	lower	1	1316	ses-01	81
sub-018	1	84	crossed	same	same	50	left	lower	left	lower	1	885	ses-01	82
sub-018	1	85	crossed	different	different	800	left	lower	right	upper	1	986	ses-01	83
sub-018	1	86	crossed	same	same	300	right	lower	right	lower	1	1637	ses-01	84
sub-018	1	87	crossed	same	same	800	right	lower	right	lower	1	672	ses-01	85
sub-018	1	88	crossed	same	different	300	right	lower	right	upper	1	591	ses-01	86
sub-018	1	89	crossed	same	different	300	left	lower	left	upper	1	1763	ses-01	87
sub-018	1	90	crossed	same	different	300	right	upper	right	lower	1	506	ses-01	88
sub-018	1	91	crossed	same	different	50	left	lower	left	upper	1	1349	ses-01	89
sub-018	1	92	crossed	same	different	800	left	lower	left	upper	1	785	ses-01	90
sub-018	1	93	crossed	different	different	50	right	upper	left	lower	1	1541	ses-01	91
sub-018	1	94	crossed	different	same	50	left	lower	right	lower	1	1295	ses-01	92
sub-018	1	95	crossed	same	same	800	right	lower	right	lower	1	828	ses-01	93
sub-018	1	96	crossed	same	same	800	left	lower	left	lower	1	1333	ses-01	94
sub-018	1	97	crossed	same	different	100	left	lower	left	upper	1	1109	ses-01	95
sub-018	1	98	crossed	different	same	300	right	lower	left	lower	0	2222	ses-01	96
sub-018	1	99	crossed	same	same	800	left	lower	left	lower	1	781	ses-01	97
sub-018	1	100	crossed	same	different	50	left	lower	left	upper	1	1140	ses-01	98
sub-018	1	101	crossed	different	different	300	left	upper	right	lower	1	1220	ses-01	99
sub-018	1	102	crossed	same	same	300	right	lower	right	lower	1	688	ses-01	100
sub-018	1	103	crossed	different	different	50	left	upper	right	lower	0	1145	ses-01	101
sub-018	1	104	crossed	same	different	100	right	lower	right	upper	1	741	ses-01	102
sub-018	1	105	crossed	different	same	300	left	lower	right	lower	0	1385	ses-01	103
sub-018	1	106	crossed	same	different	50	right	lower	right	upper	1	1165	ses-01	104
sub-018	1	107	crossed	different	different	800	left	lower	right	upper	1	785	ses-01	105
sub-018	1	108	crossed	same	different	100	right	lower	right	upper	1	1131	ses-01	106
sub-018	1	109	crossed	same	different	800	right	lower	right	upper	1	664	ses-01	107
sub-018	1	110	crossed	different	different	100	left	lower	right	upper	1	1778	ses-01	108
sub-018	1	111	crossed	different	same	50	right	lower	left	lower	0	1309	ses-01	109
sub-018	1	112	crossed	different	different	800	right	lower	left	upper	1	1680	ses-01	110
sub-018	1	113	crossed	same	different	50	left	upper	left	lower	1	1499	ses-01	111
sub-018	1	114	crossed	different	different	50	left	lower	right	upper	1	714	ses-01	112
sub-018	1	115	crossed	same	same	50	left	lower	left	lower	1	1184	ses-01	113
sub-018	1	117	crossed	different	same	300	right	lower	left	lower	0	1520	ses-01	114
sub-018	1	118	crossed	same	different	800	left	upper	left	lower	0	1799	ses-01	115
sub-018	1	119	crossed	different	different	300	right	upper	left	lower	0	872	ses-01	116
sub-018	1	120	crossed	different	different	300	right	upper	left	lower	1	613	ses-01	117
sub-018	1	121	crossed	same	different	800	right	upper	right	lower	1	1462	ses-01	118
sub-018	1	122	crossed	same	same	100	right	lower	right	lower	1	1004	ses-01	119
sub-018	1	123	crossed	same	different	100	left	lower	left	upper	1	1173	ses-01	120
sub-018	1	124	crossed	different	different	100	left	lower	right	upper	1	1558	ses-01	121
sub-018	1	125	crossed	different	same	300	left	lower	right	lower	0	1348	ses-01	122
sub-018	1	126	crossed	same	same	50	right	lower	right	lower	1	985	ses-01	123
sub-018	1	127	crossed	different	same	100	right	lower	left	lower	1	1387	ses-01	124
sub-018	1	128	crossed	different	different	100	right	lower	left	upper	0	1015	ses-01	125
sub-018	1	129	crossed	different	different	100	left	lower	right	upper	0	1208	ses-01	126
sub-018	1	130	crossed	different	different	800	left	upper	right	lower	1	1071	ses-01	127
sub-018	1	131	crossed	same	different	50	left	upper	left	lower	1	1509	ses-01	128
sub-018	1	132	crossed	same	different	100	left	upper	left	lower	1	755	ses-01	129
sub-018	1	133	crossed	different	different	800	right	upper	left	lower	1	1007	ses-01	130
sub-018	1	134	crossed	different	different	800	left	upper	right	lower	0	904	ses-01	131
sub-018	1	135	crossed	different	same	800	right	lower	left	lower	0	1054	ses-01	132
sub-018	1	136	crossed	same	different	100	right	lower	right	upper	1	848	ses-01	133
sub-018	1	137	crossed	same	different	800	left	upper	left	lower	1	768	ses-01	134
sub-018	1	138	crossed	different	different	100	left	upper	right	lower	1	2045	ses-01	135
sub-018	1	139	crossed	different	different	800	right	upper	left	lower	1	1258	ses-01	136
sub-018	1	140	crossed	same	different	100	right	upper	right	lower	1	1303	ses-01	137
sub-018	1	141	crossed	different	different	300	left	upper	right	lower	1	1101	ses-01	138
sub-018	1	142	crossed	different	same	100	left	lower	right	lower	1	1542	ses-01	139
sub-018	1	143	crossed	same	same	300	left	lower	left	lower	1	674	ses-01	140
sub-018	1	144	crossed	same	same	100	left	lower	left	lower	1	721	ses-01	141
sub-018	1	145	crossed	different	different	300	left	lower	right	upper	1	1579	ses-01	142
sub-018	1	146	crossed	different	different	100	right	upper	left	lower	0	754	ses-01	143
sub-018	1	147	crossed	same	different	300	right	lower	right	upper	1	783	ses-01	144
sub-018	1	148	crossed	same	different	50	right	upper	right	lower	1	818	ses-01	145
sub-018	1	149	crossed	same	different	300	left	lower	left	upper	1	1096	ses-01	146
sub-018	1	150	crossed	different	same	100	right	lower	left	lower	1	833	ses-01	147
sub-018	1	151	crossed	same	different	100	right	upper	right	lower	1	568	ses-01	148
sub-018	1	152	crossed	different	same	300	left	lower	right	lower	1	1314	ses-01	149
sub-018	1	153	crossed	same	different	300	left	lower	left	upper	1	1140	ses-01	150
sub-018	1	154	crossed	different	different	300	left	upper	right	lower	1	1059	ses-01	151
sub-018	1	155	crossed	same	different	100	left	lower	left	upper	1	709	ses-01	152
sub-018	1	156	crossed	different	different	300	right	lower	left	upper	1	913	ses-01	153
sub-018	1	157	crossed	different	different	300	right	upper	left	lower	1	1237	ses-01	154
sub-018	1	158	crossed	same	different	100	left	lower	left	upper	1	887	ses-01	155
sub-018	1	159	crossed	different	different	800	right	upper	left	lower	1	1082	ses-01	156
sub-018	1	160	crossed	different	same	100	left	lower	right	lower	1	1620	ses-01	157
sub-018	1	161	crossed	same	different	100	left	upper	left	lower	1	1076	ses-01	158
sub-018	1	162	crossed	same	different	100	right	upper	right	lower	1	757	ses-01	159
sub-018	1	163	crossed	different	same	800	right	lower	left	lower	1	1094	ses-01	160
sub-018	1	164	crossed	same	different	50	right	lower	right	upper	1	840	ses-01	161
sub-018	1	165	crossed	different	different	100	right	upper	left	lower	1	856	ses-01	162
sub-018	1	166	crossed	different	different	50	right	upper	left	lower	1	2192	ses-01	163
sub-018	1	167	crossed	different	same	100	right	lower	left	lower	1	1137	ses-01	164
sub-018	1	168	crossed	same	same	50	left	lower	left	lower	1	1178	ses-01	165
sub-018	1	169	crossed	different	different	300	right	upper	left	lower	1	605	ses-01	166
sub-018	1	171	crossed	different	same	50	left	lower	right	lower	0	1145	ses-01	167
sub-018	1	172	crossed	different	same	300	left	lower	right	lower	1	725	ses-01	168
sub-018	1	173	crossed	same	different	800	left	lower	left	upper	1	900	ses-01	169
sub-018	1	174	crossed	same	same	300	left	lower	left	lower	1	1611	ses-01	170
sub-018	1	175	crossed	different	same	50	left	lower	right	lower	0	2440	ses-01	171
sub-018	1	176	crossed	same	different	800	right	lower	right	upper	1	681	ses-01	172
sub-018	1	177	crossed	different	different	800	left	lower	right	upper	0	1168	ses-01	173
sub-018	1	178	crossed	different	different	300	left	upper	right	lower	1	1787	ses-01	174
sub-018	1	179	crossed	different	different	50	left	lower	right	upper	0	1540	ses-01	175
sub-018	1	180	crossed	different	same	800	right	lower	left	lower	1	1014	ses-01	176
sub-018	1	181	crossed	different	same	50	left	lower	right	lower	0	903	ses-01	177
sub-018	1	182	crossed	same	different	50	left	lower	left	upper	1	1477	ses-01	178
sub-018	1	183	crossed	different	different	50	right	upper	left	lower	1	972	ses-01	179
sub-018	1	184	crossed	same	same	300	left	lower	left	lower	1	2007	ses-01	180
sub-018	1	185	crossed	same	different	100	left	upper	left	lower	1	1330	ses-01	181
sub-018	1	186	crossed	same	different	800	left	upper	left	lower	1	1380	ses-01	182
sub-018	1	187	crossed	different	same	50	left	lower	right	lower	1	1209	ses-01	183
sub-018	1	188	crossed	same	different	300	left	upper	left	lower	1	1001	ses-01	184
sub-018	1	189	crossed	same	same	800	left	lower	left	lower	1	1220	ses-01	185
sub-018	1	190	crossed	different	different	300	left	upper	right	lower	0	1225	ses-01	186
sub-018	1	191	crossed	same	same	100	left	lower	left	lower	1	934	ses-01	187
sub-018	1	192	crossed	different	different	50	right	lower	left	upper	1	1045	ses-01	188
sub-018	1	193	crossed	same	different	800	left	lower	left	upper	1	1489	ses-01	189
sub-018	1	194	crossed	same	same	100	left	lower	left	lower	1	915	ses-01	190
sub-018	1	195	crossed	same	same	50	right	lower	right	lower	1	1234	ses-01	191
sub-018	1	196	crossed	same	same	300	left	lower	left	lower	1	724	ses-01	192
sub-018	1	197	crossed	different	different	50	right	lower	left	upper	1	809	ses-01	193
sub-018	1	198	crossed	same	different	100	left	lower	left	upper	1	1047	ses-01	194
sub-018	1	199	crossed	different	same	800	left	lower	right	lower	1	1559	ses-01	195
sub-018	1	200	crossed	same	different	50	right	upper	right	lower	1	803	ses-01	196
sub-018	1	201	crossed	different	different	300	right	upper	left	lower	1	1242	ses-01	197
sub-018	1	202	crossed	same	same	800	right	lower	right	lower	1	712	ses-01	198
sub-018	1	203	crossed	same	same	50	left	lower	left	lower	1	1249	ses-01	199
sub-018	1	204	crossed	same	different	800	right	upper	right	lower	1	880	ses-01	200
sub-018	1	205	crossed	different	different	100	right	lower	left	upper	1	882	ses-01	201
sub-018	1	206	crossed	different	different	800	right	lower	left	upper	1	1989	ses-01	202
sub-018	1	207	crossed	same	different	50	right	lower	right	upper	1	807	ses-01	203
sub-018	1	208	crossed	different	same	100	left	lower	right	lower	1	580	ses-01	204
sub-018	1	209	crossed	different	same	300	left	lower	right	lower	0	1732	ses-01	205
sub-018	1	210	crossed	different	same	100	left	lower	right	lower	1	1725	ses-01	206
sub-018	1	211	crossed	different	different	100	left	upper	right	lower	1	43	ses-01	207
sub-018	1	212	crossed	different	same	100	right	lower	left	lower	1	975	ses-01	208
sub-018	1	213	crossed	different	same	800	right	lower	left	lower	1	1790	ses-01	209
sub-018	1	214	crossed	same	same	300	right	lower	right	lower	1	2120	ses-01	210
sub-018	1	215	crossed	different	same	50	left	lower	right	lower	0	2110	ses-01	211
sub-018	1	216	crossed	different	same	800	left	lower	right	lower	1	1155	ses-01	212
sub-018	1	217	crossed	same	same	50	left	lower	left	lower	1	926	ses-01	213
sub-018	1	218	crossed	different	same	100	right	lower	left	lower	1	2197	ses-01	214
sub-018	1	219	crossed	different	same	100	left	lower	right	lower	1	2162	ses-01	215
sub-018	1	220	crossed	same	different	50	right	lower	right	upper	1	918	ses-01	216
sub-018	1	221	crossed	different	different	50	left	upper	right	lower	1	1406	ses-01	217
sub-018	1	222	crossed	different	same	800	left	lower	right	lower	1	1318	ses-01	218
sub-018	1	223	crossed	different	same	800	left	lower	right	lower	1	1885	ses-01	219
sub-018	1	224	crossed	different	different	800	right	lower	left	upper	1	1328	ses-01	220
sub-018	1	225	crossed	same	same	50	left	lower	left	lower	1	1091	ses-01	221
sub-018	1	226	crossed	same	same	50	left	lower	left	lower	1	805	ses-01	222
sub-018	1	227	crossed	same	same	100	left	lower	left	lower	1	1116	ses-01	223
sub-018	1	228	crossed	different	different	50	right	lower	left	upper	1	842	ses-01	224
sub-018	1	229	crossed	same	same	100	right	lower	right	lower	1	662	ses-01	225
sub-018	1	230	crossed	same	different	800	right	lower	right	upper	1	1165	ses-01	226
sub-018	1	231	crossed	same	same	100	right	lower	right	lower	0	836	ses-01	227
sub-018	1	232	crossed	different	same	800	right	lower	left	lower	1	1517	ses-01	228
sub-018	1	233	crossed	same	different	300	right	lower	right	upper	1	1140	ses-01	229
sub-018	1	234	crossed	same	different	300	left	lower	left	upper	1	913	ses-01	230
sub-018	1	235	crossed	same	different	300	left	upper	left	lower	1	727	ses-01	231
sub-018	1	236	crossed	same	same	100	right	lower	right	lower	1	1763	ses-01	232
sub-018	1	237	crossed	same	same	800	right	lower	right	lower	1	681	ses-01	233
sub-018	1	238	crossed	same	same	300	left	lower	left	lower	1	861	ses-01	234
sub-018	1	239	crossed	different	same	100	right	lower	left	lower	0	1208	ses-01	235
sub-018	1	240	crossed	same	same	300	left	lower	left	lower	1	1292	ses-01	236
sub-018	1	241	crossed	same	different	100	right	lower	right	upper	1	732	ses-01	237
sub-018	1	242	crossed	same	same	50	right	lower	right	lower	1	688	ses-01	238
sub-018	1	243	crossed	same	different	50	left	lower	left	upper	1	982	ses-01	239
sub-018	1	244	crossed	same	same	300	left	lower	left	lower	1	730	ses-01	240
sub-018	1	245	crossed	same	different	50	right	upper	right	lower	1	1015	ses-01	241
sub-018	1	246	crossed	same	different	100	left	upper	left	lower	1	1339	ses-01	242
sub-018	1	247	crossed	different	same	50	right	lower	left	lower	1	744	ses-01	243
sub-018	1	248	crossed	different	same	300	right	lower	left	lower	1	925	ses-01	244
sub-018	1	250	crossed	same	different	800	right	lower	right	upper	0	1617	ses-01	245
sub-018	1	251	crossed	same	different	800	right	lower	right	upper	1	1100	ses-01	246
sub-018	1	252	crossed	same	same	50	right	lower	right	lower	0	1549	ses-01	247
sub-018	1	253	crossed	same	same	800	left	lower	left	lower	1	1323	ses-01	248
sub-018	1	254	crossed	same	same	300	right	lower	right	lower	1	1831	ses-01	249
sub-018	1	255	crossed	same	different	50	left	upper	left	lower	1	1056	ses-01	250
sub-018	1	256	crossed	different	different	100	right	lower	left	upper	1	1630	ses-01	251
sub-018	1	257	crossed	different	same	50	left	lower	right	lower	1	1937	ses-01	252
sub-018	1	258	crossed	different	same	800	right	lower	left	lower	1	1670	ses-01	253
sub-018	1	259	crossed	same	same	50	right	lower	right	lower	1	1294	ses-01	254
sub-018	1	260	crossed	different	different	300	left	lower	right	upper	1	1732	ses-01	255
sub-018	1	261	crossed	different	same	50	right	lower	left	lower	1	1836	ses-01	256
sub-018	1	262	crossed	same	same	50	left	lower	left	lower	1	961	ses-01	257
sub-018	1	263	crossed	different	same	50	right	lower	left	lower	1	1442	ses-01	258
sub-018	1	264	crossed	different	different	100	right	lower	left	upper	1	1423	ses-01	259
sub-018	1	265	crossed	different	different	800	right	lower	left	upper	1	2066	ses-01	260
sub-018	1	266	crossed	different	different	800	right	lower	left	upper	1	1551	ses-01	261
sub-018	1	267	crossed	different	different	800	left	upper	right	lower	0	1202	ses-01	262
sub-018	1	268	crossed	different	different	800	left	upper	right	lower	1	1054	ses-01	263
sub-018	1	269	crossed	same	different	300	right	upper	right	lower	1	842	ses-01	264
sub-018	1	270	crossed	same	same	300	left	lower	left	lower	1	1112	ses-01	265
sub-018	1	271	crossed	different	different	800	left	lower	right	upper	1	970	ses-01	266
sub-018	1	272	crossed	same	different	800	left	upper	left	lower	0	1076	ses-01	267
sub-018	1	273	crossed	different	same	300	left	lower	right	lower	0	2722	ses-01	268
sub-018	1	274	crossed	different	same	800	right	lower	left	lower	1	894	ses-01	269
sub-018	1	275	crossed	different	different	100	left	lower	right	upper	0	935	ses-01	270
sub-018	1	276	crossed	different	same	100	right	lower	left	lower	0	794	ses-01	271
sub-018	1	277	crossed	different	same	50	right	lower	left	lower	1	1190	ses-01	272
sub-018	1	278	crossed	same	different	300	right	lower	right	upper	1	945	ses-01	273
sub-018	1	279	crossed	same	same	50	right	lower	right	lower	1	1212	ses-01	274
sub-018	1	280	crossed	different	different	50	left	lower	right	upper	1	1443	ses-01	275
sub-018	1	281	crossed	different	same	100	left	lower	right	lower	1	1634	ses-01	276
sub-018	1	282	crossed	different	different	300	left	lower	right	upper	1	1694	ses-01	277
sub-018	1	283	crossed	same	same	100	right	lower	right	lower	0	1721	ses-01	278
sub-018	1	284	crossed	different	different	50	left	upper	right	lower	0	906	ses-01	279
sub-018	1	285	crossed	same	same	100	left	lower	left	lower	1	1239	ses-01	280
sub-018	1	286	crossed	different	different	50	left	lower	right	upper	1	1097	ses-01	281
sub-018	1	287	crossed	same	different	50	left	lower	left	upper	1	682	ses-01	282
sub-018	1	288	crossed	same	same	50	left	lower	left	lower	1	1023	ses-01	283
sub-018	1	289	crossed	same	different	50	right	lower	right	upper	1	978	ses-01	284
sub-018	1	290	crossed	same	same	800	left	lower	left	lower	1	658	ses-01	285
sub-018	1	291	crossed	different	same	50	left	lower	right	lower	1	1026	ses-01	286
sub-018	1	292	crossed	different	different	100	left	lower	right	upper	1	1236	ses-01	287
sub-018	1	293	crossed	same	same	100	left	lower	left	lower	1	1495	ses-01	288
sub-018	1	294	crossed	different	same	800	left	lower	right	lower	1	1146	ses-01	289
sub-018	1	295	crossed	different	same	100	left	lower	right	lower	0	1774	ses-01	290
sub-018	1	296	crossed	same	same	300	right	lower	right	lower	1	1591	ses-01	291
sub-018	1	297	crossed	different	same	800	right	lower	left	lower	1	735	ses-01	292
sub-018	1	298	crossed	different	same	50	right	lower	left	lower	1	1106	ses-01	293
sub-018	1	299	crossed	same	different	50	right	upper	right	lower	1	1025	ses-01	294
sub-018	1	300	crossed	same	same	50	left	lower	left	lower	1	826	ses-01	295
sub-018	1	301	crossed	same	same	300	left	lower	left	lower	1	752	ses-01	296
sub-018	1	302	crossed	same	different	800	right	upper	right	lower	1	657	ses-01	297
sub-018	1	303	crossed	same	different	300	right	lower	right	upper	1	456	ses-01	298
sub-018	1	304	crossed	same	same	800	left	lower	left	lower	1	1089	ses-01	299
sub-018	1	305	crossed	different	different	50	left	upper	right	lower	1	1117	ses-01	300
sub-018	1	306	crossed	different	different	300	right	lower	left	upper	1	1268	ses-01	301
sub-018	1	307	crossed	same	same	100	right	lower	right	lower	1	898	ses-01	302
sub-018	1	308	crossed	same	different	50	left	upper	left	lower	1	841	ses-01	303
sub-018	1	309	crossed	different	different	300	right	lower	left	upper	1	1558	ses-01	304
sub-018	1	310	crossed	same	same	800	right	lower	right	lower	1	776	ses-01	305
sub-018	1	311	crossed	different	different	300	right	upper	left	lower	1	1684	ses-01	306
sub-018	1	312	crossed	different	same	50	right	lower	left	lower	1	1651	ses-01	307
sub-018	1	313	crossed	different	same	50	left	lower	right	lower	1	1508	ses-01	308
sub-018	1	314	crossed	different	different	800	right	lower	left	upper	1	1081	ses-01	309
sub-018	1	315	crossed	same	different	800	left	lower	left	upper	1	627	ses-01	310
sub-018	1	316	crossed	same	different	800	left	upper	left	lower	1	927	ses-01	311
sub-018	1	317	crossed	same	different	100	right	upper	right	lower	0	1114	ses-01	312
sub-018	1	318	crossed	different	same	100	right	lower	left	lower	1	1343	ses-01	313
sub-018	1	319	crossed	same	same	50	left	lower	left	lower	1	2035	ses-01	314
sub-018	1	320	crossed	same	same	300	right	lower	right	lower	1	668	ses-01	315
sub-018	1	322	crossed	different	different	50	right	upper	left	lower	1	1434	ses-01	316
sub-018	1	323	crossed	same	same	50	right	lower	right	lower	1	1227	ses-01	317
sub-018	1	324	crossed	different	different	100	right	lower	left	upper	1	590	ses-01	318
sub-018	1	325	crossed	same	different	50	right	lower	right	upper	1	571	ses-01	319
sub-018	1	326	crossed	different	different	300	right	lower	left	upper	1	592	ses-01	320
sub-018	1	327	crossed	different	same	100	left	lower	right	lower	1	1177	ses-01	321
sub-018	1	328	crossed	different	different	300	left	lower	right	upper	1	1071	ses-01	322
sub-018	1	329	crossed	different	different	50	right	upper	left	lower	1	915	ses-01	323
sub-018	1	330	crossed	different	different	100	left	upper	right	lower	1	770	ses-01	324
sub-018	1	331	crossed	same	same	100	left	lower	left	lower	1	816	ses-01	325
sub-018	1	332	crossed	same	same	800	left	lower	left	lower	1	1083	ses-01	326
sub-018	1	333	crossed	same	different	800	right	upper	right	lower	1	713	ses-01	327
sub-018	1	334	crossed	same	same	100	left	lower	left	lower	1	1125	ses-01	328
sub-018	1	335	crossed	different	different	800	left	lower	right	upper	1	819	ses-01	329
sub-018	1	336	crossed	different	same	100	left	lower	right	lower	1	1428	ses-01	330
sub-018	1	337	crossed	different	different	100	right	upper	left	lower	0	969	ses-01	331
sub-018	1	338	crossed	different	same	300	left	lower	right	lower	1	494	ses-01	332
sub-018	1	339	crossed	different	different	300	left	lower	right	upper	0	532	ses-01	333
sub-018	1	340	crossed	different	different	300	left	lower	right	upper	1	421	ses-01	334
sub-018	1	341	crossed	same	same	50	right	lower	right	lower	1	1683	ses-01	335
sub-018	1	342	crossed	different	different	800	left	upper	right	lower	1	1079	ses-01	336
sub-018	1	343	crossed	same	same	100	right	lower	right	lower	1	570	ses-01	337
sub-018	1	344	crossed	different	same	800	left	lower	right	lower	1	535	ses-01	338
sub-018	1	345	crossed	same	same	800	right	lower	right	lower	1	975	ses-01	339
sub-018	1	346	crossed	same	same	800	right	lower	right	lower	1	372	ses-01	340
sub-018	1	347	crossed	same	same	800	left	lower	left	lower	1	796	ses-01	341
sub-018	1	348	crossed	different	same	800	left	lower	right	lower	1	893	ses-01	342
sub-018	1	349	crossed	same	same	50	right	lower	right	lower	1	898	ses-01	343
sub-018	1	350	crossed	same	different	300	right	upper	right	lower	1	561	ses-01	344
sub-018	1	351	crossed	different	same	300	right	lower	left	lower	1	897	ses-01	345
sub-018	1	352	crossed	different	different	100	right	upper	left	lower	1	1037	ses-01	346
sub-018	1	353	crossed	different	same	50	left	lower	right	lower	1	609	ses-01	347
sub-018	1	354	crossed	different	different	300	left	upper	right	lower	1	452	ses-01	348
sub-018	1	355	crossed	different	different	100	left	upper	right	lower	1	492	ses-01	349
sub-018	1	356	crossed	different	different	50	left	upper	right	lower	1	616	ses-01	350
sub-018	1	357	crossed	same	different	300	left	lower	left	upper	1	1018	ses-01	351
sub-018	1	358	crossed	same	same	800	right	lower	right	lower	1	1155	ses-01	352
sub-018	1	359	crossed	same	different	50	right	upper	right	lower	1	720	ses-01	353
sub-018	1	360	crossed	different	same	300	right	lower	left	lower	1	1051	ses-01	354
sub-018	1	361	crossed	different	same	800	right	lower	left	lower	1	1087	ses-01	355
sub-018	1	362	crossed	same	same	100	right	lower	right	lower	1	987	ses-01	356
sub-018	1	363	crossed	same	different	800	left	lower	left	upper	1	1368	ses-01	357
sub-018	1	364	crossed	different	same	50	right	lower	left	lower	1	1314	ses-01	358
sub-018	1	365	crossed	same	different	300	right	upper	right	lower	1	660	ses-01	359
sub-018	1	366	crossed	same	same	300	right	lower	right	lower	1	864	ses-01	360
sub-018	1	367	crossed	same	different	300	left	upper	left	lower	1	748	ses-01	361
sub-018	1	368	crossed	different	different	50	right	lower	left	upper	1	1128	ses-01	362
sub-018	1	369	crossed	different	same	100	right	lower	left	lower	1	1859	ses-01	363
sub-018	1	370	crossed	same	same	800	left	lower	left	lower	1	827	ses-01	364
sub-018	1	371	crossed	same	different	100	right	lower	right	upper	1	792	ses-01	365
sub-018	1	372	crossed	different	different	50	left	upper	right	lower	1	705	ses-01	366
sub-018	1	373	crossed	same	different	300	right	lower	right	upper	1	1000	ses-01	367
sub-018	1	374	crossed	same	same	300	left	lower	left	lower	1	769	ses-01	368
sub-018	1	375	crossed	same	same	800	right	lower	right	lower	1	778	ses-01	369
sub-018	1	376	crossed	same	different	800	left	lower	left	upper	1	668	ses-01	370
sub-018	1	377	crossed	same	different	300	right	upper	right	lower	1	1687	ses-01	371
sub-018	1	378	crossed	different	different	800	left	lower	right	upper	1	1533	ses-01	372
sub-018	1	379	crossed	same	same	800	right	lower	right	lower	1	818	ses-01	373
sub-018	1	380	crossed	different	different	300	right	lower	left	upper	1	981	ses-01	374
sub-018	1	381	crossed	same	different	50	right	upper	right	lower	1	719	ses-01	375
sub-018	1	382	crossed	same	same	100	right	lower	right	lower	1	688	ses-01	376
sub-018	1	383	crossed	same	same	800	right	lower	right	lower	1	422	ses-01	377
sub-018	1	384	crossed	different	same	300	right	lower	left	lower	1	803	ses-01	378
sub-018	1	385	crossed	different	same	100	right	lower	left	lower	1	1109	ses-01	379
sub-018	1	386	crossed	different	different	50	left	lower	right	upper	1	2177	ses-01	380
sub-018	1	387	crossed	same	different	50	left	upper	left	lower	1	853	ses-01	381
sub-018	1	388	crossed	different	same	300	left	lower	right	lower	1	1104	ses-01	382
sub-018	1	389	crossed	different	same	300	left	lower	right	lower	1	1167	ses-01	383
sub-018	1	390	crossed	different	different	50	right	upper	left	lower	1	1065	ses-01	384
sub-018	2	1	crossed	same	same	50	right	lower	right	lower	1	1390	ses-01	385
sub-018	2	2	crossed	different	same	300	right	lower	left	lower	1	1365	ses-01	386
sub-018	2	3	crossed	different	different	300	left	lower	right	upper	1	1491	ses-01	387
sub-018	2	4	crossed	same	same	300	right	lower	right	lower	0	1261	ses-01	388
sub-018	2	5	crossed	same	same	800	left	lower	left	lower	1	868	ses-01	389
sub-018	2	6	crossed	same	different	800	left	lower	left	upper	0	1098	ses-01	390
sub-018	2	7	crossed	different	same	800	right	lower	left	lower	0	1612	ses-01	391
sub-018	2	8	crossed	same	different	800	left	lower	left	upper	0	1048	ses-01	392
sub-018	2	9	crossed	different	same	300	right	lower	left	lower	1	1594	ses-01	393
sub-018	2	10	crossed	different	different	50	left	upper	right	lower	1	843	ses-01	394
sub-018	2	11	crossed	different	same	300	right	lower	left	lower	1	1632	ses-01	395
sub-018	2	12	crossed	different	same	300	right	lower	left	lower	1	772	ses-01	396
sub-018	2	13	crossed	same	same	100	right	lower	right	lower	1	1740	ses-01	397
sub-018	2	14	crossed	different	different	50	right	upper	left	lower	1	2120	ses-01	398
sub-018	2	15	crossed	different	same	800	right	lower	left	lower	1	1394	ses-01	399
sub-018	2	16	crossed	same	different	300	left	lower	left	upper	0	1680	ses-01	400
sub-018	2	17	crossed	same	different	800	right	upper	right	lower	1	946	ses-01	401
sub-018	2	18	crossed	different	different	300	left	upper	right	lower	1	1295	ses-01	402
sub-018	2	19	crossed	different	same	50	left	lower	right	lower	1	2080	ses-01	403
sub-018	2	20	crossed	different	same	100	right	lower	left	lower	0	848	ses-01	404
sub-018	2	21	crossed	same	different	300	left	upper	left	lower	1	1907	ses-01	405
sub-018	2	22	crossed	same	same	300	right	lower	right	lower	1	1719	ses-01	406
sub-018	2	23	crossed	same	same	50	left	lower	left	lower	1	1656	ses-01	407
sub-018	2	24	crossed	different	different	100	right	lower	left	upper	1	1218	ses-01	408
sub-018	2	25	crossed	same	different	100	left	upper	left	lower	1	1170	ses-01	409
sub-018	2	26	crossed	same	same	50	left	lower	left	lower	1	1197	ses-01	410
sub-018	2	27	crossed	different	same	800	right	lower	left	lower	1	1665	ses-01	411
sub-018	2	28	crossed	different	different	800	right	lower	left	upper	0	1917	ses-01	412
sub-018	2	29	crossed	same	same	300	left	lower	left	lower	0	924	ses-01	413
sub-018	2	30	crossed	same	same	50	right	lower	right	lower	1	987	ses-01	414
sub-018	2	31	crossed	same	different	50	left	upper	left	lower	1	1390	ses-01	415
sub-018	2	32	crossed	same	same	50	left	lower	left	lower	1	602	ses-01	416
sub-018	2	33	crossed	same	same	50	left	lower	left	lower	1	775	ses-01	417
sub-018	2	34	crossed	same	different	100	right	upper	right	lower	1	1021	ses-01	418
sub-018	2	35	crossed	same	same	100	left	lower	left	lower	1	1168	ses-01	419
sub-018	2	36	crossed	same	same	100	right	lower	right	lower	1	1213	ses-01	420
sub-018	2	37	crossed	same	same	50	left	lower	left	lower	1	944	ses-01	421
sub-018	2	38	crossed	same	same	50	right	lower	right	lower	1	996	ses-01	422
sub-018	2	39	crossed	different	same	50	left	lower	right	lower	0	1024	ses-01	423
sub-018	2	40	crossed	different	different	100	right	lower	left	upper	0	600	ses-01	424
sub-018	2	41	crossed	same	same	100	left	lower	left	lower	1	701	ses-01	425
sub-018	2	42	crossed	same	different	800	right	upper	right	lower	1	763	ses-01	426
sub-018	2	43	crossed	different	different	100	left	upper	right	lower	1	1311	ses-01	427
sub-018	2	44	crossed	different	different	100	left	upper	right	lower	1	986	ses-01	428
sub-018	2	45	crossed	different	different	300	right	lower	left	upper	1	794	ses-01	429
sub-018	2	46	crossed	different	different	800	right	upper	left	lower	1	1842	ses-01	430
sub-018	2	47	crossed	same	same	800	right	lower	right	lower	0	1250	ses-01	431
sub-018	2	48	crossed	different	different	50	left	lower	right	upper	1	1180	ses-01	432
sub-018	2	49	crossed	same	different	300	right	lower	right	upper	0	1339	ses-01	433
sub-018	2	50	crossed	same	same	800	right	lower	right	lower	0	699	ses-01	434
sub-018	2	51	crossed	different	different	800	right	lower	left	upper	1	753	ses-01	435
sub-018	2	52	crossed	same	same	50	left	lower	left	lower	0	1734	ses-01	436
sub-018	2	53	crossed	same	different	50	right	lower	right	upper	1	1883	ses-01	437
sub-018	2	54	crossed	different	different	800	left	upper	right	lower	1	449	ses-01	438
sub-018	2	55	crossed	same	different	100	left	upper	left	lower	1	994	ses-01	439
sub-018	2	56	crossed	same	same	100	left	lower	left	lower	1	782	ses-01	440
sub-018	2	57	crossed	same	different	300	left	upper	left	lower	1	850	ses-01	441
sub-018	2	58	crossed	different	different	100	right	lower	left	upper	1	1275	ses-01	442
sub-018	2	59	crossed	same	different	50	left	lower	left	upper	1	798	ses-01	443
sub-018	2	60	crossed	same	same	50	left	lower	left	lower	1	1317	ses-01	444
sub-018	2	61	crossed	same	same	800	right	lower	right	lower	1	1048	ses-01	445
sub-018	2	62	crossed	same	same	800	right	lower	right	lower	1	723	ses-01	446
sub-018	2	63	crossed	same	same	300	right	lower	right	lower	1	469	ses-01	447
sub-018	2	64	crossed	same	same	50	right	lower	right	lower	1	666	ses-01	448
sub-018	2	65	crossed	different	same	800	left	lower	right	lower	1	838	ses-01	449
sub-018	2	66	crossed	different	different	800	right	upper	left	lower	1	1572	ses-01	450
sub-018	2	67	crossed	same	different	50	right	lower	right	upper	1	824	ses-01	451
sub-018	2	68	crossed	same	different	300	right	upper	right	lower	0	995	ses-01	452
sub-018	2	69	crossed	different	different	800	right	upper	left	lower	0	1036	ses-01	453
sub-018	2	70	crossed	different	different	50	right	upper	left	lower	1	1427	ses-01	454
sub-018	2	71	crossed	different	same	300	right	lower	left	lower	1	1665	ses-01	455
sub-018	2	72	crossed	same	same	50	left	lower	left	lower	1	1756	ses-01	456
sub-018	2	73	crossed	different	different	100	right	lower	left	upper	1	1115	ses-01	457
sub-018	2	74	crossed	same	same	300	right	lower	right	lower	1	852	ses-01	458
sub-018	2	75	crossed	same	different	50	left	upper	left	lower	1	722	ses-01	459
sub-018	2	76	crossed	same	different	50	left	upper	left	lower	1	917	ses-01	460
sub-018	2	77	crossed	different	same	300	left	lower	right	lower	1	804	ses-01	461
sub-018	2	78	crossed	same	different	300	right	upper	right	lower	1	704	ses-01	462
sub-018	2	79	crossed	different	same	300	right	lower	left	lower	1	679	ses-01	463
sub-018	2	80	crossed	different	different	300	right	lower	left	upper	1	762	ses-01	464
sub-018	2	81	crossed	different	same	50	right	lower	left	lower	1	880	ses-01	465
sub-018	2	82	crossed	different	same	800	right	lower	left	lower	1	858	ses-01	466
sub-018	2	83	crossed	different	same	800	left	lower	right	lower	1	649	ses-01	467
sub-018	2	84	crossed	different	same	800	left	lower	right	lower	1	1178	ses-01	468
sub-018	2	85	crossed	different	same	100	left	lower	right	lower	1	733	ses-01	469
sub-018	2	86	crossed	different	same	100	right	lower	left	lower	1	461	ses-01	470
sub-018	2	87	crossed	different	same	300	left	lower	right	lower	1	418	ses-01	471
sub-018	2	88	crossed	different	different	50	right	lower	left	upper	1	1218	ses-01	472
sub-018	2	89	crossed	same	different	50	right	lower	right	upper	0	2237	ses-01	473
sub-018	2	90	crossed	same	different	100	left	lower	left	upper	1	856	ses-01	474
sub-018	2	91	crossed	different	same	300	left	lower	right	lower	1	713	ses-01	475
sub-018	2	92	crossed	different	same	800	left	lower	right	lower	0	895	ses-01	476
sub-018	2	93	crossed	same	different	50	right	lower	right	upper	1	949	ses-01	477
sub-018	2	94	crossed	different	different	800	left	upper	right	lower	1	914	ses-01	478
sub-018	2	95	crossed	different	same	800	right	lower	left	lower	1	1234	ses-01	479
sub-018	2	96	crossed	different	different	300	right	upper	left	lower	1	1740	ses-01	480
sub-018	2	97	crossed	same	same	50	right	lower	right	lower	1	855	ses-01	481
sub-018	2	98	crossed	different	different	100	left	upper	right	lower	1	1454	ses-01	482
sub-018	2	99	crossed	different	different	300	right	upper	left	lower	1	1583	ses-01	483
sub-018	2	100	crossed	different	same	800	right	lower	left	lower	1	1386	ses-01	484
sub-018	2	101	crossed	different	same	50	left	lower	right	lower	1	898	ses-01	485
sub-018	2	102	crossed	same	same	300	right	lower	right	lower	0	842	ses-01	486
sub-018	2	103	crossed	same	same	300	right	lower	right	lower	1	1067	ses-01	487
sub-018	2	104	crossed	different	different	300	left	lower	right	upper	1	1290	ses-01	488
sub-018	2	105	crossed	different	same	100	right	lower	left	lower	0	1285	ses-01	489
sub-018	2	106	crossed	same	different	300	left	lower	left	upper	1	994	ses-01	490
sub-018	2	107	crossed	same	different	300	left	lower	left	upper	1	958	ses-01	491
sub-018	2	108	crossed	same	same	800	left	lower	left	lower	1	837	ses-01	492
sub-018	2	109	crossed	same	different	800	left	lower	left	upper	1	848	ses-01	493
sub-018	2	110	crossed	different	different	300	right	lower	left	upper	1	763	ses-01	494
sub-018	2	111	crossed	same	same	800	left	lower	left	lower	1	587	ses-01	495
sub-018	2	112	crossed	same	same	300	left	lower	left	lower	1	534	ses-01	496
sub-018	2	113	crossed	different	same	50	right	lower	left	lower	1	843	ses-01	497
sub-018	2	114	crossed	different	different	50	left	upper	right	lower	1	1022	ses-01	498
sub-018	2	115	crossed	different	different	800	right	upper	left	lower	1	1688	ses-01	499
sub-018	2	116	crossed	same	same	300	left	lower	left	lower	1	1380	ses-01	500
sub-018	2	117	crossed	same	same	800	right	lower	right	lower	1	721	ses-01	501
sub-018	2	118	crossed	same	different	300	left	upper	left	lower	1	630	ses-01	502
sub-018	2	119	crossed	same	same	300	left	lower	left	lower	1	477	ses-01	503
sub-018	2	120	crossed	same	same	300	right	lower	right	lower	1	1335	ses-01	504
sub-018	2	121	crossed	different	different	300	right	lower	left	upper	1	1113	ses-01	505
sub-018	2	122	crossed	different	different	100	right	upper	left	lower	1	952	ses-01	506
sub-018	2	123	crossed	same	different	100	left	upper	left	lower	1	1475	ses-01	507
sub-018	2	124	crossed	different	same	100	left	lower	right	lower	1	1533	ses-01	508
sub-018	2	125	crossed	same	different	300	left	upper	left	lower	1	1016	ses-01	509
sub-018	2	126	crossed	different	different	50	left	lower	right	upper	1	1018	ses-01	510
sub-018	2	127	crossed	different	different	800	right	lower	left	upper	1	1536	ses-01	511
sub-018	2	128	crossed	different	different	300	left	upper	right	lower	1	1433	ses-01	512
sub-018	2	129	crossed	same	same	100	left	lower	left	lower	1	659	ses-01	513
sub-018	2	130	crossed	different	same	50	left	lower	right	lower	1	946	ses-01	514
sub-018	2	131	crossed	same	same	300	left	lower	left	lower	1	1619	ses-01	515
sub-018	2	132	crossed	same	same	300	right	lower	right	lower	1	699	ses-01	516
sub-018	2	133	crossed	same	different	300	right	lower	right	upper	1	578	ses-01	517
sub-018	2	134	crossed	different	same	800	right	lower	left	lower	0	1761	ses-01	518
sub-018	2	135	crossed	same	different	300	left	lower	left	upper	1	1711	ses-01	519
sub-018	2	136	crossed	different	same	50	left	lower	right	lower	1	1028	ses-01	520
sub-018	2	137	crossed	different	same	50	left	lower	right	lower	1	1346	ses-01	521
sub-018	2	138	crossed	different	same	800	right	lower	left	lower	1	1068	ses-01	522
sub-018	2	139	crossed	same	different	800	left	upper	left	lower	1	866	ses-01	523
sub-018	2	140	crossed	same	different	300	right	upper	right	lower	1	1020	ses-01	524
sub-018	2	141	crossed	same	different	300	right	lower	right	upper	1	512	ses-01	525
sub-018	2	142	crossed	same	different	300	right	lower	right	upper	1	617	ses-01	526
sub-018	2	143	crossed	different	different	100	left	lower	right	upper	1	792	ses-01	527
sub-018	2	144	crossed	different	different	800	left	upper	right	lower	1	788	ses-01	528
sub-018	2	145	crossed	different	same	100	left	lower	right	lower	1	690	ses-01	529
sub-018	2	146	crossed	same	different	50	left	lower	left	upper	1	686	ses-01	530
sub-018	2	147	crossed	same	same	100	right	lower	right	lower	1	1114	ses-01	531
sub-018	2	148	crossed	different	different	50	left	lower	right	upper	1	859	ses-01	532
sub-018	2	149	crossed	same	same	800	right	lower	right	lower	1	1643	ses-01	533
sub-018	2	150	crossed	different	different	50	right	upper	left	lower	1	761	ses-01	534
sub-018	2	151	crossed	different	different	800	left	upper	right	lower	1	947	ses-01	535
sub-018	2	152	crossed	different	different	300	right	upper	left	lower	1	602	ses-01	536
sub-018	2	153	crossed	different	same	800	left	lower	right	lower	1	566	ses-01	537
sub-018	2	154	crossed	different	different	100	left	lower	right	upper	1	707	ses-01	538
sub-018	2	155	crossed	different	different	100	left	lower	right	upper	1	808	ses-01	539
sub-018	2	156	crossed	same	same	300	left	lower	left	lower	1	917	ses-01	540
sub-018	2	157	crossed	same	same	300	left	lower	left	lower	1	776	ses-01	541
sub-018	2	158	crossed	same	different	100	right	lower	right	upper	1	931	ses-01	542
sub-018	2	159	crossed	same	same	800	right	lower	right	lower	1	695	ses-01	543
sub-018	2	160	crossed	different	same	100	left	lower	right	lower	1	711	ses-01	544
sub-018	2	161	crossed	different	different	800	left	lower	right	upper	1	526	ses-01	545
sub-018	2	162	crossed	different	different	50	right	lower	left	upper	1	984	ses-01	546
sub-018	2	163	crossed	same	same	50	right	lower	right	lower	1	520	ses-01	547
sub-018	2	164	crossed	different	different	100	right	upper	left	lower	1	597	ses-01	548
sub-018	2	165	crossed	same	same	100	left	lower	left	lower	1	730	ses-01	549
sub-018	2	166	crossed	different	different	100	right	lower	left	upper	1	603	ses-01	550
sub-018	2	167	crossed	different	same	100	left	lower	right	lower	1	828	ses-01	551
sub-018	2	168	crossed	same	different	800	right	lower	right	upper	1	645	ses-01	552
sub-018	2	169	crossed	different	same	800	left	lower	right	lower	1	598	ses-01	553
sub-018	2	170	crossed	different	same	100	right	lower	left	lower	1	837	ses-01	554
sub-018	2	171	crossed	different	same	300	left	lower	right	lower	1	706	ses-01	555
sub-018	2	172	crossed	same	same	50	right	lower	right	lower	1	920	ses-01	556
sub-018	2	173	crossed	same	different	100	left	lower	left	upper	1	1778	ses-01	557
sub-018	2	174	crossed	different	same	50	right	lower	left	lower	1	884	ses-01	558
sub-018	2	175	crossed	same	same	800	right	lower	right	lower	1	731	ses-01	559
sub-018	2	176	crossed	same	different	100	right	upper	right	lower	1	863	ses-01	560
sub-018	2	177	crossed	same	different	300	left	lower	left	upper	1	903	ses-01	561
sub-018	2	178	crossed	same	same	800	right	lower	right	lower	1	1047	ses-01	562
sub-018	2	179	crossed	same	different	800	left	upper	left	lower	1	985	ses-01	563
sub-018	2	180	crossed	different	different	50	left	upper	right	lower	1	780	ses-01	564
sub-018	2	181	crossed	different	different	300	right	upper	left	lower	1	1303	ses-01	565
sub-018	2	182	crossed	same	different	50	left	upper	left	lower	1	786	ses-01	566
sub-018	2	183	crossed	different	same	50	right	lower	left	lower	1	879	ses-01	567
sub-018	2	184	crossed	different	different	100	right	upper	left	lower	1	1542	ses-01	568
sub-018	2	185	crossed	same	different	100	right	upper	right	lower	0	1856	ses-01	569
sub-018	2	186	crossed	same	same	800	left	lower	left	lower	1	868	ses-01	570
sub-018	2	187	crossed	different	same	300	right	lower	left	lower	1	1985	ses-01	571
sub-018	2	188	crossed	different	same	50	right	lower	left	lower	0	1268	ses-01	572
sub-018	2	189	crossed	different	different	800	left	lower	right	upper	1	888	ses-01	573
sub-018	2	190	crossed	different	same	50	left	lower	right	lower	0	1006	ses-01	574
sub-018	2	191	crossed	different	same	50	left	lower	right	lower	0	1259	ses-01	575
sub-018	2	192	crossed	same	same	50	right	lower	right	lower	1	1195	ses-01	576
sub-018	2	193	crossed	same	different	800	right	lower	right	upper	1	793	ses-01	577
sub-018	2	194	crossed	different	same	50	right	lower	left	lower	0	1636	ses-01	578
sub-018	2	195	crossed	same	same	800	left	lower	left	lower	1	677	ses-01	579
sub-018	2	196	crossed	different	different	800	right	lower	left	upper	1	1995	ses-01	580
sub-018	2	197	crossed	different	different	50	right	lower	left	upper	0	2235	ses-01	581
sub-018	2	198	crossed	same	different	100	right	lower	right	upper	0	1672	ses-01	582
sub-018	2	199	crossed	same	different	300	right	upper	right	lower	1	1053	ses-01	583
sub-018	2	200	crossed	same	different	800	left	lower	left	upper	1	1173	ses-01	584
sub-018	2	201	crossed	same	different	800	right	lower	right	upper	1	772	ses-01	585
sub-018	2	202	crossed	same	same	100	right	lower	right	lower	1	686	ses-01	586
sub-018	2	203	crossed	different	same	300	right	lower	left	lower	1	740	ses-01	587
sub-018	2	204	crossed	different	different	50	right	upper	left	lower	0	1047	ses-01	588
sub-018	2	205	crossed	same	different	800	right	upper	right	lower	1	970	ses-01	589
sub-018	2	206	crossed	different	same	50	left	lower	right	lower	1	723	ses-01	590
sub-018	2	207	crossed	different	same	800	right	lower	left	lower	1	1283	ses-01	591
sub-018	2	208	crossed	different	same	300	left	lower	right	lower	1	569	ses-01	592
sub-018	2	209	crossed	same	different	800	left	lower	left	upper	1	718	ses-01	593
sub-018	2	210	crossed	same	same	800	left	lower	left	lower	1	790	ses-01	594
sub-018	2	211	crossed	different	same	100	left	lower	right	lower	1	765	ses-01	595
sub-018	2	212	crossed	different	different	800	right	lower	left	upper	1	1657	ses-01	596
sub-018	2	213	crossed	different	different	100	left	upper	right	lower	1	876	ses-01	597
sub-018	2	214	crossed	same	different	100	right	lower	right	upper	1	765	ses-01	598
sub-018	2	215	crossed	different	different	300	left	upper	right	lower	1	502	ses-01	599
sub-018	2	216	crossed	same	same	800	right	lower	right	lower	1	621	ses-01	600
sub-018	2	217	crossed	same	different	800	right	lower	right	upper	1	610	ses-01	601
sub-018	2	218	crossed	same	same	50	right	lower	right	lower	1	763	ses-01	602
sub-018	2	219	crossed	same	different	100	left	lower	left	upper	1	1538	ses-01	603
sub-018	2	220	crossed	different	different	100	left	lower	right	upper	1	802	ses-01	604
sub-018	2	221	crossed	same	different	800	left	lower	left	upper	1	988	ses-01	605
sub-018	2	222	crossed	same	different	100	left	lower	left	upper	1	668	ses-01	606
sub-018	2	223	crossed	same	same	100	right	lower	right	lower	1	1712	ses-01	607
sub-018	2	224	crossed	same	same	800	right	lower	right	lower	1	513	ses-01	608
sub-018	2	225	crossed	same	same	50	left	lower	left	lower	1	918	ses-01	609
sub-018	2	226	crossed	different	same	800	left	lower	right	lower	1	719	ses-01	610
sub-018	2	227	crossed	different	same	50	right	lower	left	lower	1	780	ses-01	611
sub-018	2	228	crossed	different	same	100	right	lower	left	lower	1	1091	ses-01	612
sub-018	2	229	crossed	different	same	50	right	lower	left	lower	1	979	ses-01	613
sub-018	2	230	crossed	same	different	50	left	lower	left	upper	1	954	ses-01	614
sub-018	2	231	crossed	same	different	50	left	lower	left	upper	1	760	ses-01	615
sub-018	2	232	crossed	different	different	50	right	upper	left	lower	1	1214	ses-01	616
sub-018	2	233	crossed	different	same	100	left	lower	right	lower	1	1052	ses-01	617
sub-018	2	234	crossed	same	different	100	left	upper	left	lower	1	1019	ses-01	618
sub-018	2	235	crossed	same	same	100	right	lower	right	lower	1	1005	ses-01	619
sub-018	2	236	crossed	different	different	100	left	upper	right	lower	1	797	ses-01	620
sub-018	2	237	crossed	different	same	100	left	lower	right	lower	1	1105	ses-01	621
sub-018	2	238	crossed	same	same	800	left	lower	left	lower	1	125	ses-01	622
sub-018	2	239	crossed	different	different	800	left	lower	right	upper	1	1028	ses-01	623
sub-018	2	240	crossed	same	same	300	left	lower	left	lower	1	652	ses-01	624
sub-018	2	241	crossed	same	different	800	left	upper	left	lower	1	428	ses-01	625
sub-018	2	242	crossed	same	different	100	left	upper	left	lower	1	753	ses-01	626
sub-018	2	244	crossed	same	different	50	right	lower	right	upper	1	930	ses-01	627
sub-018	2	245	crossed	different	same	50	right	lower	left	lower	1	862	ses-01	628
sub-018	2	246	crossed	same	different	50	right	lower	right	upper	1	1041	ses-01	629
sub-018	2	247	crossed	different	different	50	left	upper	right	lower	1	1109	ses-01	630
sub-018	2	248	crossed	same	different	50	right	upper	right	lower	1	751	ses-01	631
sub-018	2	249	crossed	different	same	50	right	lower	left	lower	1	567	ses-01	632
sub-018	2	250	crossed	different	same	800	right	lower	left	lower	1	508	ses-01	633
sub-018	2	251	crossed	different	same	800	right	lower	left	lower	1	548	ses-01	634
sub-018	2	252	crossed	different	different	50	left	lower	right	upper	1	999	ses-01	635
sub-018	2	253	crossed	same	same	800	left	lower	left	lower	1	946	ses-01	636
sub-018	2	254	crossed	same	different	300	left	lower	left	upper	1	2113	ses-01	637
sub-018	2	255	crossed	different	different	50	left	upper	right	lower	0	1980	ses-01	638
sub-018	2	256	crossed	same	same	300	right	lower	right	lower	1	746	ses-01	639
sub-018	2	257	crossed	different	same	300	left	lower	right	lower	1	1200	ses-01	640
sub-018	2	258	crossed	same	same	800	left	lower	left	lower	1	838	ses-01	641
sub-018	2	259	crossed	same	same	100	left	lower	left	lower	1	759	ses-01	642
sub-018	2	260	crossed	different	same	100	right	lower	left	lower	1	795	ses-01	643
sub-018	2	261	crossed	different	different	100	right	upper	left	lower	1	2214	ses-01	644
sub-018	2	263	crossed	same	different	800	right	lower	right	upper	1	1236	ses-01	645
sub-018	2	264	crossed	different	same	50	left	lower	right	lower	1	703	ses-01	646
sub-018	2	265	crossed	same	different	100	left	upper	left	lower	1	724	ses-01	647
sub-018	2	266	crossed	same	different	800	right	lower	right	upper	1	647	ses-01	648
sub-018	2	267	crossed	same	same	100	left	lower	left	lower	1	1588	ses-01	649
sub-018	2	268	crossed	different	same	100	right	lower	left	lower	1	819	ses-01	650
sub-018	2	269	crossed	same	same	50	left	lower	left	lower	1	1557	ses-01	651
sub-018	2	270	crossed	different	different	300	right	lower	left	upper	1	1070	ses-01	652
sub-018	2	271	crossed	same	different	100	right	upper	right	lower	1	2488	ses-01	653
sub-018	2	272	crossed	different	same	800	left	lower	right	lower	1	644	ses-01	654
sub-018	2	273	crossed	same	same	100	right	lower	right	lower	1	514	ses-01	655
sub-018	2	274	crossed	different	different	100	left	lower	right	upper	1	641	ses-01	656
sub-018	2	275	crossed	same	different	50	right	upper	right	lower	1	599	ses-01	657
sub-018	2	276	crossed	same	different	800	left	upper	left	lower	1	1865	ses-01	658
sub-018	2	277	crossed	different	different	800	right	upper	left	lower	1	708	ses-01	659
sub-018	2	278	crossed	different	same	300	right	lower	left	lower	1	1318	ses-01	660
sub-018	2	279	crossed	different	same	300	right	lower	left	lower	1	829	ses-01	661
sub-018	2	280	crossed	different	same	300	left	lower	right	lower	1	1190	ses-01	662
sub-018	2	282	crossed	same	different	50	right	upper	right	lower	1	598	ses-01	663
sub-018	2	283	crossed	different	same	300	left	lower	right	lower	1	766	ses-01	664
sub-018	2	284	crossed	same	different	800	right	upper	right	lower	1	632	ses-01	665
sub-018	2	285	crossed	same	different	300	right	upper	right	lower	1	740	ses-01	666
sub-018	2	286	crossed	different	different	800	left	upper	right	lower	1	678	ses-01	667
sub-018	2	287	crossed	different	same	100	left	lower	right	lower	1	1134	ses-01	668
sub-018	2	288	crossed	same	same	100	right	lower	right	lower	1	926	ses-01	669
sub-018	2	289	crossed	same	same	800	right	lower	right	lower	1	590	ses-01	670
sub-018	2	290	crossed	different	same	50	right	lower	left	lower	1	1486	ses-01	671
sub-018	2	291	crossed	same	same	50	right	lower	right	lower	1	672	ses-01	672
sub-018	2	292	crossed	same	same	800	left	lower	left	lower	1	1274	ses-01	673
sub-018	2	293	crossed	same	same	100	left	lower	left	lower	1	971	ses-01	674
sub-018	2	294	crossed	same	same	300	left	lower	left	lower	1	1055	ses-01	675
sub-018	2	295	crossed	different	different	300	left	lower	right	upper	1	697	ses-01	676
sub-018	2	296	crossed	different	different	50	right	upper	left	lower	1	1239	ses-01	677
sub-018	2	297	crossed	different	different	50	right	lower	left	upper	1	1827	ses-01	678
sub-018	2	298	crossed	same	different	50	right	upper	right	lower	1	719	ses-01	679
sub-018	2	299	crossed	same	same	100	left	lower	left	lower	1	734	ses-01	680
sub-018	2	300	crossed	different	different	300	left	upper	right	lower	1	1284	ses-01	681
sub-018	2	301	crossed	same	same	100	left	lower	left	lower	1	782	ses-01	682
sub-018	2	302	crossed	different	different	300	left	upper	right	lower	1	952	ses-01	683
sub-018	2	303	crossed	different	same	100	right	lower	left	lower	0	691	ses-01	684
sub-018	2	304	crossed	different	same	800	left	lower	right	lower	1	1200	ses-01	685
sub-018	2	305	crossed	different	same	50	left	lower	right	lower	0	1118	ses-01	686
sub-018	2	306	crossed	different	different	800	right	upper	left	lower	1	910	ses-01	687
sub-018	2	307	crossed	different	same	50	left	lower	right	lower	1	1400	ses-01	688
sub-018	2	308	crossed	different	different	300	left	lower	right	upper	1	1026	ses-01	689
sub-018	2	309	crossed	same	same	300	left	lower	left	lower	1	1263	ses-01	690
sub-018	2	310	crossed	same	different	50	right	upper	right	lower	1	538	ses-01	691
sub-018	2	311	crossed	same	different	800	left	upper	left	lower	1	995	ses-01	692
sub-018	2	312	crossed	different	different	50	left	upper	right	lower	0	1998	ses-01	693
sub-018	2	313	crossed	different	different	50	right	lower	left	upper	0	837	ses-01	694
sub-018	2	314	crossed	different	different	800	left	lower	right	upper	1	903	ses-01	695
sub-018	2	315	crossed	different	different	800	left	lower	right	upper	1	561	ses-01	696
sub-018	2	316	crossed	different	different	300	left	lower	right	upper	1	782	ses-01	697
sub-018	2	317	crossed	different	different	100	left	upper	right	lower	1	1492	ses-01	698
sub-018	2	318	crossed	same	different	50	left	upper	left	lower	1	1082	ses-01	699
sub-018	2	319	crossed	same	same	100	right	lower	right	lower	0	1360	ses-01	700
sub-018	2	320	crossed	different	different	100	right	upper	left	lower	0	1813	ses-01	701
sub-018	2	321	crossed	different	different	300	right	upper	left	lower	1	1706	ses-01	702
sub-018	2	322	crossed	different	same	300	left	lower	right	lower	1	1122	ses-01	703
sub-018	2	323	crossed	same	same	50	left	lower	left	lower	1	1141	ses-01	704
sub-018	2	324	crossed	same	same	300	left	lower	left	lower	1	1054	ses-01	705
sub-018	2	325	crossed	same	different	300	left	upper	left	lower	1	653	ses-01	706
sub-018	2	326	crossed	same	different	300	left	upper	left	lower	1	864	ses-01	707
sub-018	2	327	crossed	different	different	800	left	upper	right	lower	1	594	ses-01	708
sub-018	2	328	crossed	same	same	300	right	lower	right	lower	1	800	ses-01	709
sub-018	2	329	crossed	same	same	300	right	lower	right	lower	1	712	ses-01	710
sub-018	2	330	crossed	different	same	100	left	lower	right	lower	1	692	ses-01	711
sub-018	2	331	crossed	same	different	50	right	upper	right	lower	1	795	ses-01	712
sub-018	2	332	crossed	different	same	800	left	lower	right	lower	1	792	ses-01	713
sub-018	2	333	crossed	same	same	50	right	lower	right	lower	1	552	ses-01	714
sub-018	2	334	crossed	different	same	100	right	lower	left	lower	1	1095	ses-01	715
sub-018	2	335	crossed	different	same	50	right	lower	left	lower	1	750	ses-01	716
sub-018	2	336	crossed	different	different	800	right	lower	left	upper	0	210	ses-01	717
sub-018	2	340	crossed	different	same	300	right	lower	left	lower	1	1055	ses-01	718
sub-018	2	341	crossed	same	different	800	left	upper	left	lower	1	1433	ses-01	719
sub-018	2	342	crossed	same	same	800	left	lower	left	lower	0	2189	ses-01	720
sub-018	2	343	crossed	different	different	100	left	lower	right	upper	1	1106	ses-01	721
sub-018	2	344	crossed	different	same	100	right	lower	left	lower	1	831	ses-01	722
sub-018	2	345	crossed	same	same	300	right	lower	right	lower	1	1530	ses-01	723
sub-018	2	346	crossed	same	same	100	right	lower	right	lower	1	1346	ses-01	724
sub-018	2	347	crossed	same	different	100	right	lower	right	upper	1	1028	ses-01	725
sub-018	2	348	crossed	different	same	100	right	lower	left	lower	1	1330	ses-01	726
sub-018	2	349	crossed	same	different	100	right	upper	right	lower	1	578	ses-01	727
sub-018	2	350	crossed	same	different	100	left	lower	left	upper	1	902	ses-01	728
sub-018	2	351	crossed	same	different	50	left	lower	left	upper	1	932	ses-01	729
sub-018	2	352	crossed	same	same	300	left	lower	left	lower	1	731	ses-01	730
sub-018	2	353	crossed	different	different	50	right	lower	left	upper	1	816	ses-01	731
sub-018	2	354	crossed	different	different	100	right	upper	left	lower	0	673	ses-01	732
sub-018	2	355	crossed	different	same	300	right	lower	left	lower	1	606	ses-01	733
sub-018	2	357	crossed	same	same	100	right	lower	right	lower	1	746	ses-01	734
sub-018	2	358	crossed	same	different	50	left	upper	left	lower	1	906	ses-01	735
sub-018	2	359	crossed	different	same	800	left	lower	right	lower	1	800	ses-01	736
sub-018	2	360	crossed	same	different	100	right	lower	right	upper	1	543	ses-01	737
sub-018	2	361	crossed	same	different	800	right	upper	right	lower	1	392	ses-01	738
sub-018	2	362	crossed	same	different	300	right	lower	right	upper	1	781	ses-01	739
sub-018	2	363	crossed	different	different	300	right	upper	left	lower	1	716	ses-01	740
sub-018	2	364	crossed	same	same	50	left	lower	left	lower	1	1325	ses-01	741
sub-018	2	365	crossed	different	different	50	left	lower	right	upper	1	822	ses-01	742
sub-018	2	366	crossed	different	same	100	left	lower	right	lower	1	1701	ses-01	743
sub-018	2	367	crossed	same	same	50	right	lower	right	lower	1	1030	ses-01	744
sub-018	2	368	crossed	same	same	100	left	lower	left	lower	1	1943	ses-01	745
sub-018	2	369	crossed	same	different	100	right	lower	right	upper	1	795	ses-01	746
sub-018	2	370	crossed	same	same	100	right	lower	right	lower	1	688	ses-01	747
sub-018	2	371	crossed	same	different	300	right	lower	right	upper	1	540	ses-01	748
sub-018	2	372	crossed	different	different	50	left	lower	right	upper	1	1555	ses-01	749
sub-018	2	373	crossed	different	same	300	left	lower	right	lower	1	775	ses-01	750
sub-018	2	374	crossed	different	same	300	left	lower	right	lower	1	607	ses-01	751
sub-018	2	375	crossed	same	same	100	left	lower	left	lower	1	1124	ses-01	752
sub-018	2	376	crossed	different	different	300	left	upper	right	lower	1	624	ses-01	753
sub-018	2	377	crossed	different	different	100	right	lower	left	upper	1	1000	ses-01	754
sub-018	2	378	crossed	same	same	800	left	lower	left	lower	1	932	ses-01	755
sub-018	2	379	crossed	same	different	100	left	lower	left	upper	1	633	ses-01	756
sub-018	2	380	crossed	different	different	300	right	lower	left	upper	1	1251	ses-01	757
sub-018	2	382	crossed	different	different	800	left	lower	right	upper	1	505	ses-01	758
sub-018	2	383	crossed	different	different	300	left	lower	right	upper	1	907	ses-01	759
sub-018	2	384	crossed	different	same	800	right	lower	left	lower	1	2009	ses-01	760
sub-018	2	385	crossed	different	same	800	left	lower	right	lower	1	777	ses-01	761
sub-018	2	386	crossed	same	different	50	left	lower	left	upper	1	2367	ses-01	762
sub-018	2	387	crossed	different	same	300	left	lower	right	lower	1	772	ses-01	763
sub-018	2	388	crossed	same	different	800	right	upper	right	lower	1	534	ses-01	764
sub-018	2	389	crossed	same	different	300	right	upper	right	lower	1	566	ses-01	765
sub-018	2	390	crossed	same	different	100	right	upper	right	lower	1	660	ses-01	766
sub-018	2	391	crossed	different	same	100	right	lower	left	lower	1	1733	ses-01	767
sub-018	2	392	crossed	different	same	100	left	lower	right	lower	1	1485	ses-01	768
sub-018	1	2	uncrossed	different	different	50	right	upper	left	lower	1	1203	ses-01	769
sub-018	1	3	uncrossed	different	same	800	right	lower	left	lower	1	758	ses-01	770
sub-018	1	4	uncrossed	different	different	50	left	upper	right	lower	1	1082	ses-01	771
sub-018	1	5	uncrossed	same	different	800	left	upper	left	lower	1	732	ses-01	772
sub-018	1	6	uncrossed	same	different	50	left	lower	left	upper	1	1331	ses-01	773
sub-018	1	7	uncrossed	different	different	300	left	lower	right	upper	1	542	ses-01	774
sub-018	1	8	uncrossed	same	same	50	left	lower	left	lower	1	644	ses-01	775
sub-018	1	9	uncrossed	same	different	800	right	upper	right	lower	1	650	ses-01	776
sub-018	1	10	uncrossed	same	same	800	right	lower	right	lower	1	695	ses-01	777
sub-018	1	11	uncrossed	different	same	800	left	lower	right	lower	1	906	ses-01	778
sub-018	1	12	uncrossed	same	different	300	left	lower	left	upper	1	685	ses-01	779
sub-018	1	13	uncrossed	same	same	50	left	lower	left	lower	1	1950	ses-01	780
sub-018	1	14	uncrossed	same	different	800	right	lower	right	upper	1	613	ses-01	781
sub-018	1	15	uncrossed	different	same	50	left	lower	right	lower	1	1170	ses-01	782
sub-018	1	16	uncrossed	different	different	800	right	upper	left	lower	1	978	ses-01	783
sub-018	1	17	uncrossed	different	different	100	left	lower	right	upper	1	1215	ses-01	784
sub-018	1	18	uncrossed	different	different	50	right	lower	left	upper	1	1762	ses-01	785
sub-018	1	19	uncrossed	different	same	800	left	lower	right	lower	1	903	ses-01	786
sub-018	1	20	uncrossed	same	same	300	left	lower	left	lower	1	834	ses-01	787
sub-018	1	21	uncrossed	same	different	100	right	lower	right	upper	1	906	ses-01	788
sub-018	1	22	uncrossed	different	different	800	left	upper	right	lower	1	924	ses-01	789
sub-018	1	23	uncrossed	same	different	100	left	lower	left	upper	1	796	ses-01	790
sub-018	1	24	uncrossed	same	different	50	right	lower	right	upper	1	1105	ses-01	791
sub-018	1	25	uncrossed	same	different	300	left	upper	left	lower	1	1201	ses-01	792
sub-018	1	26	uncrossed	different	same	300	right	lower	left	lower	1	851	ses-01	793
sub-018	1	27	uncrossed	different	different	300	left	lower	right	upper	1	786	ses-01	794
sub-018	1	28	uncrossed	different	different	50	right	lower	left	upper	1	1366	ses-01	795
sub-018	1	29	uncrossed	different	same	100	right	lower	left	lower	1	1437	ses-01	796
sub-018	1	30	uncrossed	different	different	100	right	upper	left	lower	1	1803	ses-01	797
sub-018	1	31	uncrossed	different	same	100	right	lower	left	lower	1	562	ses-01	798
sub-018	1	32	uncrossed	different	different	800	left	upper	right	lower	1	705	ses-01	799
sub-018	1	33	uncrossed	same	same	800	left	lower	left	lower	1	762	ses-01	800
sub-018	1	34	uncrossed	different	same	50	right	lower	left	lower	1	1032	ses-01	801
sub-018	1	35	uncrossed	same	same	100	left	lower	left	lower	1	798	ses-01	802
sub-018	1	36	uncrossed	different	different	100	right	upper	left	lower	1	1015	ses-01	803
sub-018	1	37	uncrossed	different	different	50	right	lower	left	upper	1	1295	ses-01	804
sub-018	1	38	uncrossed	same	same	800	right	lower	right	lower	0	1598	ses-01	805
sub-018	1	39	uncrossed	same	different	300	right	upper	right	lower	1	529	ses-01	806
sub-018	1	40	uncrossed	different	same	50	left	lower	right	lower	1	1041	ses-01	807
sub-018	1	41	uncrossed	same	different	300	left	lower	left	upper	1	994	ses-01	808
sub-018	1	42	uncrossed	different	same	50	left	lower	right	lower	1	1363	ses-01	809
sub-018	1	43	uncrossed	different	same	50	right	lower	left	lower	1	2156	ses-01	810
sub-018	1	44	uncrossed	different	same	100	right	lower	left	lower	0	499	ses-01	811
sub-018	1	45	uncrossed	same	same	50	right	lower	right	lower	1	861	ses-01	812
sub-018	1	46	uncrossed	same	different	800	left	upper	left	lower	1	721	ses-01	813
sub-018	1	47	uncrossed	same	different	800	left	upper	left	lower	1	583	ses-01	814
sub-018	1	48	uncrossed	different	different	100	right	lower	left	upper	1	651	ses-01	815
sub-018	1	49	uncrossed	different	different	50	right	lower	left	upper	1	1020	ses-01	816
sub-018	1	50	uncrossed	different	different	800	right	upper	left	lower	1	1081	ses-01	817
sub-018	1	51	uncrossed	same	same	800	left	lower	left	lower	0	1230	ses-01	818
sub-018	1	52	uncrossed	same	different	800	right	lower	right	upper	1	910	ses-01	819
sub-018	1	53	uncrossed	same	different	800	right	upper	right	lower	0	843	ses-01	820
sub-018	1	54	uncrossed	different	different	300	right	upper	left	lower	0	836	ses-01	821
sub-018	1	55	uncrossed	different	same	300	right	lower	left	lower	1	683	ses-01	822
sub-018	1	56	uncrossed	same	different	100	right	upper	right	lower	1	919	ses-01	823
sub-018	1	57	uncrossed	same	same	300	right	lower	right	lower	1	996	ses-01	824
sub-018	1	58	uncrossed	same	different	300	right	upper	right	lower	1	441	ses-01	825
sub-018	1	59	uncrossed	same	different	50	right	lower	right	upper	1	480	ses-01	826
sub-018	1	60	uncrossed	same	different	100	left	lower	left	upper	1	771	ses-01	827
sub-018	1	61	uncrossed	same	same	50	left	lower	left	lower	1	494	ses-01	828
sub-018	1	62	uncrossed	different	different	300	left	upper	right	lower	1	975	ses-01	829
sub-018	1	63	uncrossed	same	same	300	left	lower	left	lower	1	1100	ses-01	830
sub-018	1	64	uncrossed	different	different	100	right	lower	left	upper	1	828	ses-01	831
sub-018	1	65	uncrossed	same	different	800	left	lower	left	upper	1	577	ses-01	832
sub-018	1	66	uncrossed	different	different	100	left	upper	right	lower	1	852	ses-01	833
sub-018	1	67	uncrossed	different	different	800	right	lower	left	upper	1	916	ses-01	834
sub-018	1	68	uncrossed	same	different	800	right	upper	right	lower	1	1724	ses-01	835
sub-018	1	69	uncrossed	different	same	300	right	lower	left	lower	1	970	ses-01	836
sub-018	1	70	uncrossed	same	same	800	right	lower	right	lower	1	1337	ses-01	837
sub-018	1	71	uncrossed	same	same	100	right	lower	right	lower	1	1104	ses-01	838
sub-018	1	72	uncrossed	same	same	100	right	lower	right	lower	1	629	ses-01	839
sub-018	1	73	uncrossed	same	different	300	right	lower	right	upper	1	439	ses-01	840
sub-018	1	74	uncrossed	same	different	300	right	lower	right	upper	1	418	ses-01	841
sub-018	1	75	uncrossed	different	different	300	right	upper	left	lower	1	847	ses-01	842
sub-018	1	76	uncrossed	same	same	300	right	lower	right	lower	1	658	ses-01	843
sub-018	1	77	uncrossed	different	different	800	left	upper	right	lower	1	969	ses-01	844
sub-018	1	78	uncrossed	different	different	100	right	lower	left	upper	1	1133	ses-01	845
sub-018	1	79	uncrossed	different	different	800	left	lower	right	upper	0	585	ses-01	846
sub-018	1	80	uncrossed	different	same	50	right	lower	left	lower	1	736	ses-01	847
sub-018	1	81	uncrossed	same	same	300	left	lower	left	lower	1	714	ses-01	848
sub-018	1	82	uncrossed	different	different	100	left	upper	right	lower	1	1177	ses-01	849
sub-018	1	83	uncrossed	same	different	300	left	lower	left	upper	1	747	ses-01	850
sub-018	1	84	uncrossed	same	different	800	right	lower	right	upper	1	704	ses-01	851
sub-018	1	85	uncrossed	different	different	50	right	upper	left	lower	1	1038	ses-01	852
sub-018	1	86	uncrossed	same	different	50	left	lower	left	upper	1	1179	ses-01	853
sub-018	1	87	uncrossed	different	different	300	right	lower	left	upper	1	1072	ses-01	854
sub-018	1	89	uncrossed	same	same	50	left	lower	left	lower	1	678	ses-01	855
sub-018	1	90	uncrossed	same	same	800	right	lower	right	lower	1	709	ses-01	856
sub-018	1	91	uncrossed	different	same	100	left	lower	right	lower	1	927	ses-01	857
sub-018	1	92	uncrossed	same	same	800	right	lower	right	lower	0	1089	ses-01	858
sub-018	1	93	uncrossed	different	different	300	right	lower	left	upper	0	649	ses-01	859
sub-018	1	94	uncrossed	same	same	50	left	lower	left	lower	1	2065	ses-01	860
sub-018	1	95	uncrossed	different	same	100	right	lower	left	lower	1	974	ses-01	861
sub-018	1	96	uncrossed	different	different	100	left	lower	right	upper	1	1064	ses-01	862
sub-018	1	97	uncrossed	same	different	50	right	upper	right	lower	1	691	ses-01	863
sub-018	1	98	uncrossed	same	different	800	left	lower	left	upper	1	1056	ses-01	864
sub-018	1	99	uncrossed	same	same	800	right	lower	right	lower	1	531	ses-01	865
sub-018	1	100	uncrossed	different	same	800	right	lower	left	lower	1	1018	ses-01	866
sub-018	1	101	uncrossed	same	different	50	left	upper	left	lower	1	1446	ses-01	867
sub-018	1	102	uncrossed	same	different	50	left	lower	left	upper	1	639	ses-01	868
sub-018	1	103	uncrossed	different	same	100	left	lower	right	lower	1	1249	ses-01	869
sub-018	1	104	uncrossed	different	same	300	right	lower	left	lower	1	1821	ses-01	870
sub-018	1	105	uncrossed	same	same	300	right	lower	right	lower	1	594	ses-01	871
sub-018	1	106	uncrossed	different	same	100	left	lower	right	lower	1	1088	ses-01	872
sub-018	1	107	uncrossed	same	same	100	right	lower	right	lower	1	2263	ses-01	873
sub-018	1	108	uncrossed	different	different	300	left	upper	right	lower	1	868	ses-01	874
sub-018	1	109	uncrossed	different	different	300	left	upper	right	lower	1	1041	ses-01	875
sub-018	1	110	uncrossed	same	same	800	left	lower	left	lower	1	1155	ses-01	876
sub-018	1	111	uncrossed	same	different	800	right	upper	right	lower	1	1336	ses-01	877
sub-018	1	112	uncrossed	same	different	800	right	lower	right	upper	1	716	ses-01	878
sub-018	1	113	uncrossed	same	same	50	right	lower	right	lower	1	1414	ses-01	879
sub-018	1	114	uncrossed	same	different	100	right	upper	right	lower	1	686	ses-01	880
sub-018	1	115	uncrossed	same	different	800	right	lower	right	upper	1	567	ses-01	881
sub-018	1	116	uncrossed	same	different	50	right	lower	right	upper	1	1670	ses-01	882
sub-018	1	117	uncrossed	same	same	100	left	lower	left	lower	1	1327	ses-01	883
sub-018	1	118	uncrossed	same	different	50	right	upper	right	lower	1	531	ses-01	884
sub-018	1	119	uncrossed	different	different	50	left	lower	right	upper	1	1206	ses-01	885
sub-018	1	120	uncrossed	same	same	800	right	lower	right	lower	1	529	ses-01	886
sub-018	1	121	uncrossed	different	same	300	left	lower	right	lower	1	572	ses-01	887
sub-018	1	122	uncrossed	different	same	300	left	lower	right	lower	1	627	ses-01	888
sub-018	1	123	uncrossed	same	same	300	left	lower	left	lower	1	1068	ses-01	889
sub-018	1	124	uncrossed	same	same	800	left	lower	left	lower	1	884	ses-01	890
sub-018	1	125	uncrossed	different	different	300	right	lower	left	upper	1	983	ses-01	891
sub-018	1	126	uncrossed	same	different	100	left	lower	left	upper	1	697	ses-01	892
sub-018	1	127	uncrossed	different	same	100	right	lower	left	lower	1	1136	ses-01	893
sub-018	1	128	uncrossed	different	different	50	left	upper	right	lower	1	1193	ses-01	894
sub-018	1	129	uncrossed	different	different	300	right	upper	left	lower	1	1020	ses-01	895
sub-018	1	130	uncrossed	same	same	300	right	lower	right	lower	1	881	ses-01	896
sub-018	1	131	uncrossed	different	same	50	left	lower	right	lower	1	2003	ses-01	897
sub-018	1	132	uncrossed	different	same	800	left	lower	right	lower	0	780	ses-01	898
sub-018	1	133	uncrossed	same	same	50	right	lower	right	lower	1	744	ses-01	899
sub-018	1	134	uncrossed	different	same	800	right	lower	left	lower	1	1014	ses-01	900
sub-018	1	135	uncrossed	same	same	50	right	lower	right	lower	1	751	ses-01	901
sub-018	1	136	uncrossed	same	different	50	left	upper	left	lower	1	763	ses-01	902
sub-018	1	137	uncrossed	same	different	50	left	upper	left	lower	1	861	ses-01	903
sub-018	1	138	uncrossed	same	same	800	left	lower	left	lower	1	584	ses-01	904
sub-018	1	139	uncrossed	same	same	100	right	lower	right	lower	1	609	ses-01	905
sub-018	1	140	uncrossed	different	same	300	right	lower	left	lower	1	1006	ses-01	906
sub-018	1	141	uncrossed	same	same	100	right	lower	right	lower	1	457	ses-01	907
sub-018	1	142	uncrossed	different	same	100	left	lower	right	lower	1	885	ses-01	908
sub-018	1	143	uncrossed	different	same	300	left	lower	right	lower	1	968	ses-01	909
sub-018	1	144	uncrossed	same	different	300	left	lower	left	upper	0	1404	ses-01	910
sub-018	1	145	uncrossed	different	same	50	left	lower	right	lower	1	1068	ses-01	911
sub-018	1	146	uncrossed	same	same	50	right	lower	right	lower	1	690	ses-01	912
sub-018	1	147	uncrossed	same	same	50	left	lower	left	lower	1	1642	ses-01	913
sub-018	1	148	uncrossed	different	different	800	right	lower	left	upper	1	1638	ses-01	914
sub-018	1	149	uncrossed	same	different	300	left	upper	left	lower	1	549	ses-01	915
sub-018	1	150	uncrossed	different	same	800	right	lower	left	lower	1	793	ses-01	916
sub-018	1	151	uncrossed	same	different	100	right	lower	right	upper	1	497	ses-01	917
sub-018	1	152	uncrossed	same	different	800	left	lower	left	upper	1	1035	ses-01	918
sub-018	1	153	uncrossed	different	different	300	left	upper	right	lower	1	1124	ses-01	919
sub-018	1	154	uncrossed	same	same	100	right	lower	right	lower	1	713	ses-01	920
sub-018	1	155	uncrossed	different	same	800	right	lower	left	lower	1	929	ses-01	921
sub-018	1	156	uncrossed	same	different	300	right	upper	right	lower	1	840	ses-01	922
sub-018	1	157	uncrossed	same	same	300	left	lower	left	lower	0	1172	ses-01	923
sub-018	1	158	uncrossed	different	different	100	left	lower	right	upper	1	1580	ses-01	924
sub-018	1	159	uncrossed	same	same	100	right	lower	right	lower	1	2551	ses-01	925
sub-018	1	160	uncrossed	different	same	300	left	lower	right	lower	1	655	ses-01	926
sub-018	1	161	uncrossed	same	different	800	left	lower	left	upper	1	833	ses-01	927
sub-018	1	162	uncrossed	same	different	800	left	lower	left	upper	1	683	ses-01	928
sub-018	1	163	uncrossed	same	different	100	right	upper	right	lower	1	653	ses-01	929
sub-018	1	164	uncrossed	same	different	50	right	upper	right	lower	1	727	ses-01	930
sub-018	1	165	uncrossed	different	same	800	left	lower	right	lower	1	1080	ses-01	931
sub-018	1	166	uncrossed	different	same	800	left	lower	right	lower	0	1619	ses-01	932
sub-018	1	167	uncrossed	same	same	300	right	lower	right	lower	1	616	ses-01	933
sub-018	1	168	uncrossed	same	same	800	right	lower	right	lower	1	2466	ses-01	934
sub-018	1	169	uncrossed	same	different	300	right	lower	right	upper	1	462	ses-01	935
sub-018	1	170	uncrossed	different	same	100	left	lower	right	lower	1	656	ses-01	936
sub-018	1	171	uncrossed	same	same	800	left	lower	left	lower	1	635	ses-01	937
sub-018	1	172	uncrossed	same	same	50	right	lower	right	lower	1	1730	ses-01	938
sub-018	1	173	uncrossed	different	different	300	left	lower	right	upper	1	1090	ses-01	939
sub-018	1	174	uncrossed	same	same	300	right	lower	right	lower	1	731	ses-01	940
sub-018	1	175	uncrossed	different	same	800	right	lower	left	lower	1	936	ses-01	941
sub-018	1	176	uncrossed	different	same	50	right	lower	left	lower	1	688	ses-01	942
sub-018	1	177	uncrossed	different	same	100	right	lower	left	lower	0	503	ses-01	943
sub-018	1	178	uncrossed	different	same	800	right	lower	left	lower	1	672	ses-01	944
sub-018	1	179	uncrossed	different	same	50	right	lower	left	lower	1	811	ses-01	945
sub-018	1	180	uncrossed	same	same	300	left	lower	left	lower	1	714	ses-01	946
sub-018	1	181	uncrossed	same	same	300	right	lower	right	lower	1	705	ses-01	947
sub-018	1	182	uncrossed	same	same	300	right	lower	right	lower	1	522	ses-01	948
sub-018	1	183	uncrossed	different	same	800	left	lower	right	lower	1	1178	ses-01	949
sub-018	1	184	uncrossed	different	same	100	left	lower	right	lower	0	874	ses-01	950
sub-018	1	185	uncrossed	same	different	100	left	lower	left	upper	1	930	ses-01	951
sub-018	1	186	uncrossed	same	different	100	right	upper	right	lower	1	645	ses-01	952
sub-018	1	187	uncrossed	different	same	100	left	lower	right	lower	1	1195	ses-01	953
sub-018	1	188	uncrossed	different	different	100	left	upper	right	lower	1	1229	ses-01	954
sub-018	1	189	uncrossed	same	different	100	right	lower	right	upper	1	462	ses-01	955
sub-018	1	190	uncrossed	same	same	50	right	lower	right	lower	1	575	ses-01	956
sub-018	1	191	uncrossed	different	same	800	right	lower	left	lower	1	825	ses-01	957
sub-018	1	192	uncrossed	same	same	50	left	lower	left	lower	1	1116	ses-01	958
sub-018	1	193	uncrossed	different	different	800	left	lower	right	upper	0	501	ses-01	959
sub-018	1	194	uncrossed	same	different	300	right	lower	right	upper	1	660	ses-01	960
sub-018	1	195	uncrossed	same	same	50	left	lower	left	lower	0	2971	ses-01	961
sub-018	1	196	uncrossed	same	different	100	right	upper	right	lower	1	1088	ses-01	962
sub-018	1	199	uncrossed	different	different	100	right	upper	left	lower	1	626	ses-01	963
sub-018	1	200	uncrossed	same	same	100	left	lower	left	lower	1	849	ses-01	964
sub-018	1	201	uncrossed	same	same	100	left	lower	left	lower	1	622	ses-01	965
sub-018	1	202	uncrossed	different	different	100	left	lower	right	upper	1	874	ses-01	966
sub-018	1	203	uncrossed	different	different	50	right	upper	left	lower	1	1226	ses-01	967
sub-018	1	204	uncrossed	same	different	100	right	lower	right	upper	1	767	ses-01	968
sub-018	1	205	uncrossed	different	different	800	left	lower	right	upper	1	930	ses-01	969
sub-018	1	206	uncrossed	same	same	800	left	lower	left	lower	1	891	ses-01	970
sub-018	1	207	uncrossed	different	same	300	right	lower	left	lower	1	1233	ses-01	971
sub-018	1	208	uncrossed	different	different	50	left	lower	right	upper	0	987	ses-01	972
sub-018	1	209	uncrossed	different	same	800	right	lower	left	lower	1	909	ses-01	973
sub-018	1	210	uncrossed	different	same	50	right	lower	left	lower	1	1135	ses-01	974
sub-018	1	211	uncrossed	different	same	300	right	lower	left	lower	1	762	ses-01	975
sub-018	1	212	uncrossed	different	different	100	left	lower	right	upper	1	863	ses-01	976
sub-018	1	213	uncrossed	different	same	50	left	lower	right	lower	1	810	ses-01	977
sub-018	1	214	uncrossed	different	same	800	right	lower	left	lower	1	1095	ses-01	978
sub-018	1	215	uncrossed	same	same	50	left	lower	left	lower	1	1150	ses-01	979
sub-018	1	216	uncrossed	different	same	300	left	lower	right	lower	1	892	ses-01	980
sub-018	1	217	uncrossed	same	different	50	left	upper	left	lower	1	1126	ses-01	981
sub-018	1	218	uncrossed	different	different	50	left	lower	right	upper	1	773	ses-01	982
sub-018	1	219	uncrossed	same	different	300	left	upper	left	lower	1	961	ses-01	983
sub-018	1	220	uncrossed	same	same	300	right	lower	right	lower	1	753	ses-01	984
sub-018	1	221	uncrossed	different	different	50	left	lower	right	upper	1	1023	ses-01	985
sub-018	1	222	uncrossed	different	different	300	left	lower	right	upper	1	1379	ses-01	986
sub-018	1	223	uncrossed	different	same	300	left	lower	right	lower	1	1270	ses-01	987
sub-018	1	224	uncrossed	same	same	100	right	lower	right	lower	1	682	ses-01	988
sub-018	1	225	uncrossed	different	same	300	right	lower	left	lower	1	824	ses-01	989
sub-018	1	226	uncrossed	different	different	300	right	lower	left	upper	1	1377	ses-01	990
sub-018	1	227	uncrossed	same	same	800	right	lower	right	lower	1	674	ses-01	991
sub-018	1	228	uncrossed	different	same	100	right	lower	left	lower	1	888	ses-01	992
sub-018	1	229	uncrossed	same	different	300	right	lower	right	upper	1	792	ses-01	993
sub-018	1	230	uncrossed	same	same	800	left	lower	left	lower	1	685	ses-01	994
sub-018	1	231	uncrossed	different	different	300	right	lower	left	upper	1	798	ses-01	995
sub-018	1	232	uncrossed	different	same	100	right	lower	left	lower	1	849	ses-01	996
sub-018	1	233	uncrossed	same	different	300	right	upper	right	lower	1	855	ses-01	997
sub-018	1	234	uncrossed	different	different	50	right	lower	left	upper	1	726	ses-01	998
sub-018	1	235	uncrossed	same	same	300	left	lower	left	lower	1	793	ses-01	999
sub-018	1	236	uncrossed	different	same	800	left	lower	right	lower	1	740	ses-01	1000
sub-018	1	237	uncrossed	same	different	300	left	upper	left	lower	1	558	ses-01	1001
sub-018	1	238	uncrossed	different	different	100	right	upper	left	lower	1	748	ses-01	1002
sub-018	1	239	uncrossed	different	same	800	left	lower	right	lower	1	831	ses-01	1003
sub-018	1	240	uncrossed	different	same	50	left	lower	right	lower	1	791	ses-01	1004
sub-018	1	241	uncrossed	different	same	100	left	lower	right	lower	1	1141	ses-01	1005
sub-018	1	242	uncrossed	same	same	800	right	lower	right	lower	1	890	ses-01	1006
sub-018	1	243	uncrossed	same	different	50	right	lower	right	upper	1	1838	ses-01	1007
sub-018	1	244	uncrossed	same	same	800	left	lower	left	lower	1	760	ses-01	1008
sub-018	1	245	uncrossed	same	same	100	right	lower	right	lower	1	711	ses-01	1009
sub-018	1	246	uncrossed	different	different	300	left	lower	right	upper	1	1407	ses-01	1010
sub-018	1	247	uncrossed	same	same	300	left	lower	left	lower	1	639	ses-01	1011
sub-018	1	248	uncrossed	different	different	800	right	lower	left	upper	1	1081	ses-01	1012
sub-018	1	249	uncrossed	same	different	100	left	lower	left	upper	1	2712	ses-01	1013
sub-018	1	250	uncrossed	different	same	100	right	lower	left	lower	1	724	ses-01	1014
sub-018	1	251	uncrossed	same	same	100	right	lower	right	lower	1	563	ses-01	1015
sub-018	1	252	uncrossed	different	different	300	left	upper	right	lower	1	843	ses-01	1016
sub-018	1	253	uncrossed	same	same	300	right	lower	right	lower	1	704	ses-01	1017
sub-018	1	254	uncrossed	same	different	100	right	lower	right	upper	1	551	ses-01	1018
sub-018	1	255	uncrossed	different	same	800	left	lower	right	lower	1	698	ses-01	1019
sub-018	1	256	uncrossed	different	same	50	left	lower	right	lower	1	2512	ses-01	1020
sub-018	1	257	uncrossed	same	different	800	left	upper	left	lower	1	497	ses-01	1021
sub-018	1	258	uncrossed	same	same	100	left	lower	left	lower	1	667	ses-01	1022
sub-018	1	259	uncrossed	same	different	300	right	lower	right	upper	1	994	ses-01	1023
sub-018	1	260	uncrossed	different	different	100	left	lower	right	upper	1	876	ses-01	1024
sub-018	1	261	uncrossed	same	different	100	left	upper	left	lower	1	706	ses-01	1025
sub-018	1	262	uncrossed	different	same	800	left	lower	right	lower	1	944	ses-01	1026
sub-018	1	263	uncrossed	different	same	300	right	lower	left	lower	1	1367	ses-01	1027
sub-018	1	264	uncrossed	different	different	100	left	upper	right	lower	1	1136	ses-01	1028
sub-018	1	265	uncrossed	different	different	50	right	lower	left	upper	1	1165	ses-01	1029
sub-018	1	266	uncrossed	different	same	100	right	lower	left	lower	0	821	ses-01	1030
sub-018	1	267	uncrossed	same	different	300	left	lower	left	upper	1	783	ses-01	1031
sub-018	1	268	uncrossed	different	same	300	left	lower	right	lower	1	1090	ses-01	1032
sub-018	1	269	uncrossed	different	different	800	right	upper	left	lower	1	1137	ses-01	1033
sub-018	1	270	uncrossed	same	different	50	left	lower	left	upper	1	1211	ses-01	1034
sub-018	1	271	uncrossed	same	same	800	left	lower	left	lower	0	1307	ses-01	1035
sub-018	1	272	uncrossed	different	different	800	right	lower	left	upper	1	1246	ses-01	1036
sub-018	1	273	uncrossed	different	same	800	right	lower	left	lower	1	981	ses-01	1037
sub-018	1	274	uncrossed	same	different	100	right	upper	right	lower	1	646	ses-01	1038
sub-018	1	275	uncrossed	same	same	300	left	lower	left	lower	1	1633	ses-01	1039
sub-018	1	276	uncrossed	same	different	100	left	lower	left	upper	1	541	ses-01	1040
sub-018	1	277	uncrossed	different	different	800	right	lower	left	upper	1	800	ses-01	1041
sub-018	1	278	uncrossed	different	different	50	left	upper	right	lower	1	1631	ses-01	1042
sub-018	1	279	uncrossed	different	same	100	left	lower	right	lower	1	1097	ses-01	1043
sub-018	1	280	uncrossed	same	same	50	right	lower	right	lower	1	1457	ses-01	1044
sub-018	1	281	uncrossed	different	same	300	left	lower	right	lower	1	800	ses-01	1045
sub-018	1	282	uncrossed	same	different	800	right	lower	right	upper	1	721	ses-01	1046
sub-018	1	283	uncrossed	different	different	800	left	upper	right	lower	1	1336	ses-01	1047
sub-018	1	284	uncrossed	same	different	100	left	upper	left	lower	1	1045	ses-01	1048
sub-018	1	285	uncrossed	different	different	100	right	lower	left	upper	1	828	ses-01	1049
sub-018	1	286	uncrossed	same	same	800	right	lower	right	lower	1	1007	ses-01	1050
sub-018	1	287	uncrossed	different	same	50	right	lower	left	lower	1	1033	ses-01	1051
sub-018	1	288	uncrossed	different	different	50	left	lower	right	upper	0	1744	ses-01	1052
sub-018	1	289	uncrossed	same	same	50	left	lower	left	lower	1	1337	ses-01	1053
sub-018	1	290	uncrossed	different	same	300	right	lower	left	lower	1	660	ses-01	1054
sub-018	1	291	uncrossed	same	different	50	left	lower	left	upper	1	699	ses-01	1055
sub-018	1	292	uncrossed	same	same	100	left	lower	left	lower	1	952	ses-01	1056
sub-018	1	293	uncrossed	same	same	100	right	lower	right	lower	1	1370	ses-01	1057
sub-018	1	294	uncrossed	same	same	100	left	lower	left	lower	1	1519	ses-01	1058
sub-018	1	295	uncrossed	different	same	100	left	lower	right	lower	1	852	ses-01	1059
sub-018	1	296	uncrossed	different	same	800	right	lower	left	lower	1	1383	ses-01	1060
sub-018	1	298	uncrossed	same	different	50	right	lower	right	upper	1	689	ses-01	1061
sub-018	1	299	uncrossed	same	different	100	left	upper	left	lower	1	654	ses-01	1062
sub-018	1	300	uncrossed	same	different	300	left	upper	left	lower	1	393	ses-01	1063
sub-018	1	301	uncrossed	different	different	300	left	lower	right	upper	1	924	ses-01	1064
sub-018	1	302	uncrossed	different	same	50	right	lower	left	lower	1	975	ses-01	1065
sub-018	1	303	uncrossed	same	different	300	right	upper	right	lower	1	618	ses-01	1066
sub-018	1	304	uncrossed	different	different	800	right	upper	left	lower	1	727	ses-01	1067
sub-018	1	305	uncrossed	different	same	50	left	lower	right	lower	0	637	ses-01	1068
sub-018	1	306	uncrossed	same	different	800	left	upper	left	lower	1	675	ses-01	1069
sub-018	1	307	uncrossed	same	same	50	left	lower	left	lower	1	523	ses-01	1070
sub-018	1	308	uncrossed	different	different	300	left	upper	right	lower	1	800	ses-01	1071
sub-018	1	309	uncrossed	same	same	50	right	lower	right	lower	1	686	ses-01	1072
sub-018	1	310	uncrossed	different	same	100	left	lower	right	lower	1	916	ses-01	1073
sub-018	1	311	uncrossed	same	different	100	left	upper	left	lower	1	648	ses-01	1074
sub-018	1	312	uncrossed	same	same	50	left	lower	left	lower	1	564	ses-01	1075
sub-018	1	313	uncrossed	different	same	50	left	lower	right	lower	1	848	ses-01	1076
sub-018	1	314	uncrossed	different	same	50	left	lower	right	lower	1	988	ses-01	1077
sub-018	1	315	uncrossed	same	same	100	left	lower	left	lower	1	2380	ses-01	1078
sub-018	1	316	uncrossed	different	different	800	left	upper	right	lower	1	1259	ses-01	1079
sub-018	1	317	uncrossed	different	different	100	left	upper	right	lower	1	891	ses-01	1080
sub-018	1	318	uncrossed	same	different	50	right	lower	right	upper	1	734	ses-01	1081
sub-018	1	319	uncrossed	different	different	300	right	upper	left	lower	1	755	ses-01	1082
sub-018	1	320	uncrossed	same	different	800	right	upper	right	lower	1	621	ses-01	1083
sub-018	1	321	uncrossed	same	different	50	left	lower	left	upper	1	714	ses-01	1084
sub-018	1	322	uncrossed	different	different	50	left	upper	right	lower	1	921	ses-01	1085
sub-018	1	323	uncrossed	same	different	800	right	upper	right	lower	1	555	ses-01	1086
sub-018	1	324	uncrossed	same	same	300	left	lower	left	lower	1	787	ses-01	1087
sub-018	1	325	uncrossed	different	same	50	right	lower	left	lower	1	1252	ses-01	1088
sub-018	1	326	uncrossed	same	same	100	left	lower	left	lower	1	628	ses-01	1089
sub-018	1	327	uncrossed	different	different	50	left	upper	right	lower	1	789	ses-01	1090
sub-018	1	328	uncrossed	same	same	300	left	lower	left	lower	1	712	ses-01	1091
sub-018	1	329	uncrossed	different	different	50	right	upper	left	lower	1	1188	ses-01	1092
sub-018	1	330	uncrossed	same	different	50	right	upper	right	lower	1	1610	ses-01	1093
sub-018	1	331	uncrossed	same	same	100	right	lower	right	lower	1	665	ses-01	1094
sub-018	1	332	uncrossed	different	different	100	right	lower	left	upper	1	783	ses-01	1095
sub-018	1	333	uncrossed	different	same	300	right	lower	left	lower	1	760	ses-01	1096
sub-018	1	334	uncrossed	different	different	100	right	upper	left	lower	1	1662	ses-01	1097
sub-018	1	335	uncrossed	different	different	300	right	upper	left	lower	1	988	ses-01	1098
sub-018	1	336	uncrossed	different	different	800	left	upper	right	lower	1	855	ses-01	1099
sub-018	1	337	uncrossed	same	same	800	left	lower	left	lower	1	766	ses-01	1100
sub-018	1	338	uncrossed	same	same	50	right	lower	right	lower	1	1742	ses-01	1101
sub-018	1	339	uncrossed	different	same	800	left	lower	right	lower	1	833	ses-01	1102
sub-018	1	340	uncrossed	different	different	50	left	lower	right	upper	1	1781	ses-01	1103
sub-018	1	341	uncrossed	same	different	50	right	upper	right	lower	1	2528	ses-01	1104
sub-018	1	342	uncrossed	different	same	50	right	lower	left	lower	1	1013	ses-01	1105
sub-018	1	343	uncrossed	same	different	300	right	upper	right	lower	1	934	ses-01	1106
sub-018	1	344	uncrossed	different	same	300	left	lower	right	lower	1	974	ses-01	1107
sub-018	1	345	uncrossed	same	different	800	left	lower	left	upper	1	1346	ses-01	1108
sub-018	1	346	uncrossed	different	same	300	left	lower	right	lower	1	1214	ses-01	1109
sub-018	1	347	uncrossed	different	same	100	right	lower	left	lower	1	1004	ses-01	1110
sub-018	1	348	uncrossed	same	same	100	left	lower	left	lower	1	566	ses-01	1111
sub-018	1	349	uncrossed	different	different	800	left	lower	right	upper	1	767	ses-01	1112
sub-018	1	350	uncrossed	same	different	100	right	lower	right	upper	1	1062	ses-01	1113
sub-018	1	351	uncrossed	same	same	800	right	lower	right	lower	1	497	ses-01	1114
sub-018	1	352	uncrossed	different	different	300	right	upper	left	lower	1	815	ses-01	1115
sub-018	1	353	uncrossed	different	different	100	left	upper	right	lower	1	998	ses-01	1116
sub-018	1	354	uncrossed	same	same	300	left	lower	left	lower	1	1121	ses-01	1117
sub-018	1	355	uncrossed	same	different	300	left	lower	left	upper	1	927	ses-01	1118
sub-018	1	356	uncrossed	different	same	300	left	lower	right	lower	1	769	ses-01	1119
sub-018	1	357	uncrossed	same	same	100	left	lower	left	lower	1	913	ses-01	1120
sub-018	1	358	uncrossed	different	different	300	right	lower	left	upper	1	1094	ses-01	1121
sub-018	1	359	uncrossed	same	different	50	right	upper	right	lower	1	686	ses-01	1122
sub-018	1	360	uncrossed	different	same	300	right	lower	left	lower	1	730	ses-01	1123
sub-018	1	361	uncrossed	same	different	100	left	upper	left	lower	1	952	ses-01	1124
sub-018	1	362	uncrossed	same	same	50	right	lower	right	lower	1	598	ses-01	1125
sub-018	1	363	uncrossed	same	same	100	left	lower	left	lower	1	768	ses-01	1126
sub-018	1	364	uncrossed	different	different	50	left	upper	right	lower	1	2028	ses-01	1127
sub-018	1	365	uncrossed	same	different	800	left	upper	left	lower	1	604	ses-01	1128
sub-018	1	366	uncrossed	different	different	50	right	upper	left	lower	1	1022	ses-01	1129
sub-018	1	367	uncrossed	different	same	300	left	lower	right	lower	1	1401	ses-01	1130
sub-018	1	368	uncrossed	same	same	300	right	lower	right	lower	1	1132	ses-01	1131
sub-018	1	369	uncrossed	different	different	100	right	lower	left	upper	1	812	ses-01	1132
sub-018	1	370	uncrossed	different	same	100	left	lower	right	lower	1	1090	ses-01	1133
sub-018	1	371	uncrossed	different	different	800	right	upper	left	lower	1	1171	ses-01	1134
sub-018	1	372	uncrossed	different	different	800	left	lower	right	upper	0	1959	ses-01	1135
sub-018	1	373	uncrossed	different	same	800	left	lower	right	lower	1	1047	ses-01	1136
sub-018	1	374	uncrossed	same	same	800	left	lower	left	lower	1	561	ses-01	1137
sub-018	1	375	uncrossed	same	same	50	right	lower	right	lower	1	1458	ses-01	1138
sub-018	1	376	uncrossed	different	different	800	left	lower	right	upper	1	1021	ses-01	1139
sub-018	1	377	uncrossed	different	different	800	right	lower	left	upper	1	1030	ses-01	1140
sub-018	1	378	uncrossed	same	different	50	left	upper	left	lower	1	706	ses-01	1141
sub-018	1	379	uncrossed	different	same	50	left	lower	right	lower	1	1143	ses-01	1142
sub-018	1	380	uncrossed	same	different	50	left	upper	left	lower	1	843	ses-01	1143
sub-018	1	381	uncrossed	different	same	50	right	lower	left	lower	1	1252	ses-01	1144
sub-018	1	382	uncrossed	same	different	100	left	upper	left	lower	1	1359	ses-01	1145
sub-018	1	383	uncrossed	different	same	100	right	lower	left	lower	1	758	ses-01	1146
sub-018	1	384	uncrossed	same	different	300	left	upper	left	lower	1	1028	ses-01	1147
sub-018	1	385	uncrossed	same	same	300	right	lower	right	lower	1	835	ses-01	1148
sub-018	1	386	uncrossed	different	different	50	right	upper	left	lower	1	1075	ses-01	1149
sub-018	1	387	uncrossed	different	same	50	right	lower	left	lower	1	1302	ses-01	1150
sub-018	1	388	uncrossed	different	different	800	right	upper	left	lower	1	1063	ses-01	1151
sub-018	1	389	uncrossed	different	different	100	right	upper	left	lower	1	763	ses-01	1152
sub-018	2	1	uncrossed	different	different	50	left	upper	right	lower	1	1400	ses-01	1153
sub-018	2	2	uncrossed	different	same	50	right	lower	left	lower	1	687	ses-01	1154
sub-018	2	3	uncrossed	same	different	300	right	lower	right	upper	1	1219	ses-01	1155
sub-018	2	4	uncrossed	different	different	50	left	upper	right	lower	1	612	ses-01	1156
sub-018	2	5	uncrossed	same	different	300	right	upper	right	lower	1	1804	ses-01	1157
sub-018	2	6	uncrossed	same	same	300	left	lower	left	lower	1	744	ses-01	1158
sub-018	2	7	uncrossed	different	same	300	right	lower	left	lower	1	744	ses-01	1159
sub-018	2	8	uncrossed	same	different	800	right	lower	right	upper	1	655	ses-01	1160
sub-018	2	9	uncrossed	same	same	100	left	lower	left	lower	1	976	ses-01	1161
sub-018	2	10	uncrossed	same	different	50	left	lower	left	upper	1	797	ses-01	1162
sub-018	2	11	uncrossed	same	different	300	left	upper	left	lower	1	524	ses-01	1163
sub-018	2	12	uncrossed	different	same	800	right	lower	left	lower	1	970	ses-01	1164
sub-018	2	13	uncrossed	different	different	800	right	upper	left	lower	1	1350	ses-01	1165
sub-018	2	14	uncrossed	different	different	100	left	upper	right	lower	1	894	ses-01	1166
sub-018	2	15	uncrossed	different	different	300	right	lower	left	upper	1	835	ses-01	1167
sub-018	2	16	uncrossed	same	same	300	left	lower	left	lower	1	593	ses-01	1168
sub-018	2	17	uncrossed	same	different	100	left	upper	left	lower	1	1332	ses-01	1169
sub-018	2	18	uncrossed	different	different	100	right	lower	left	upper	1	743	ses-01	1170
sub-018	2	20	uncrossed	same	different	100	left	lower	left	upper	1	541	ses-01	1171
sub-018	2	21	uncrossed	different	different	50	right	lower	left	upper	1	593	ses-01	1172
sub-018	2	22	uncrossed	same	same	100	left	lower	left	lower	1	509	ses-01	1173
sub-018	2	23	uncrossed	different	same	800	right	lower	left	lower	1	1086	ses-01	1174
sub-018	2	24	uncrossed	same	different	50	left	upper	left	lower	1	983	ses-01	1175
sub-018	2	25	uncrossed	same	same	100	left	lower	left	lower	1	687	ses-01	1176
sub-018	2	26	uncrossed	same	same	50	left	lower	left	lower	1	580	ses-01	1177
sub-018	2	27	uncrossed	same	same	300	right	lower	right	lower	1	607	ses-01	1178
sub-018	2	28	uncrossed	same	different	100	left	lower	left	upper	1	1412	ses-01	1179
sub-018	2	29	uncrossed	different	different	300	right	lower	left	upper	1	1036	ses-01	1180
sub-018	2	30	uncrossed	different	same	800	right	lower	left	lower	1	1094	ses-01	1181
sub-018	2	31	uncrossed	different	same	100	right	lower	left	lower	1	2300	ses-01	1182
sub-018	2	32	uncrossed	same	different	50	left	upper	left	lower	1	628	ses-01	1183
sub-018	2	33	uncrossed	same	different	800	right	upper	right	lower	1	1174	ses-01	1184
sub-018	2	34	uncrossed	same	same	50	left	lower	left	lower	1	718	ses-01	1185
sub-018	2	35	uncrossed	same	different	800	left	lower	left	upper	1	589	ses-01	1186
sub-018	2	36	uncrossed	different	different	800	right	upper	left	lower	1	1155	ses-01	1187
sub-018	2	37	uncrossed	different	different	300	right	upper	left	lower	1	680	ses-01	1188
sub-018	2	38	uncrossed	same	same	300	left	lower	left	lower	0	656	ses-01	1189
sub-018	2	39	uncrossed	different	same	100	right	lower	left	lower	1	2001	ses-01	1190
sub-018	2	40	uncrossed	different	different	100	left	lower	right	upper	1	1206	ses-01	1191
sub-018	2	41	uncrossed	same	same	300	right	lower	right	lower	1	885	ses-01	1192
sub-018	2	42	uncrossed	same	same	800	right	lower	right	lower	1	660	ses-01	1193
sub-018	2	43	uncrossed	different	same	800	left	lower	right	lower	1	449	ses-01	1194
sub-018	2	44	uncrossed	different	different	50	right	upper	left	lower	1	932	ses-01	1195
sub-018	2	45	uncrossed	different	different	300	right	upper	left	lower	1	1558	ses-01	1196
sub-018	2	46	uncrossed	different	same	50	right	lower	left	lower	1	1085	ses-01	1197
sub-018	2	47	uncrossed	different	same	100	right	lower	left	lower	1	592	ses-01	1198
sub-018	2	48	uncrossed	same	different	300	left	upper	left	lower	1	1024	ses-01	1199
sub-018	2	49	uncrossed	different	different	800	left	upper	right	lower	1	811	ses-01	1200
sub-018	2	50	uncrossed	different	different	50	right	lower	left	upper	1	818	ses-01	1201
sub-018	2	51	uncrossed	different	different	100	left	lower	right	upper	1	681	ses-01	1202
sub-018	2	52	uncrossed	same	same	100	right	lower	right	lower	1	828	ses-01	1203
sub-018	2	53	uncrossed	different	different	50	left	lower	right	upper	1	868	ses-01	1204
sub-018	2	55	uncrossed	different	same	100	right	lower	left	lower	1	585	ses-01	1205
sub-018	2	56	uncrossed	same	different	100	right	lower	right	upper	1	533	ses-01	1206
sub-018	2	57	uncrossed	different	same	300	left	lower	right	lower	1	506	ses-01	1207
sub-018	2	58	uncrossed	different	different	300	left	upper	right	lower	1	682	ses-01	1208
sub-018	2	59	uncrossed	same	same	50	right	lower	right	lower	1	609	ses-01	1209
sub-018	2	60	uncrossed	different	same	50	left	lower	right	lower	1	596	ses-01	1210
sub-018	2	61	uncrossed	same	same	50	left	lower	left	lower	1	1612	ses-01	1211
sub-018	2	62	uncrossed	same	same	300	right	lower	right	lower	0	713	ses-01	1212
sub-018	2	63	uncrossed	same	same	100	left	lower	left	lower	1	631	ses-01	1213
sub-018	2	64	uncrossed	same	different	300	left	lower	left	upper	1	2043	ses-01	1214
sub-018	2	65	uncrossed	same	same	800	right	lower	right	lower	1	461	ses-01	1215
sub-018	2	66	uncrossed	different	different	50	right	lower	left	upper	1	880	ses-01	1216
sub-018	2	67	uncrossed	different	same	800	left	lower	right	lower	1	1166	ses-01	1217
sub-018	2	68	uncrossed	same	different	800	left	upper	left	lower	1	1873	ses-01	1218
sub-018	2	69	uncrossed	different	same	50	right	lower	left	lower	1	631	ses-01	1219
sub-018	2	70	uncrossed	same	same	100	right	lower	right	lower	1	738	ses-01	1220
sub-018	2	71	uncrossed	same	same	50	right	lower	right	lower	1	775	ses-01	1221
sub-018	2	72	uncrossed	same	different	100	left	upper	left	lower	1	881	ses-01	1222
