participant_id	run	trial_in_run	posture	stim_side	stim_segment	soa	tactor1side	tactor1segment	tactor2side	tactor2segment	response_correct	rt	session	trial
sub-14	1	1	crossed	different	same	50	left	lower	right	lower	1	845	ses-1	1
sub-14	1	2	crossed	same	same	50	right	lower	right	lower	1	689	ses-1	2
sub-14	1	3	crossed	different	different	300	right	upper	left	lower	1	786	ses-1	3
sub-14	1	4	crossed	same	same	50	right	lower	right	lower	0	1206	ses-1	4
sub-14	1	5	crossed	different	different	300	left	lower	right	upper	1	678	ses-1	5
sub-14	1	6	crossed	different	same	300	right	lower	left	lower	1	739	ses-1	6
sub-14	1	7	crossed	different	different	100	left	lower	right	upper	1	754	ses-1	7
sub-14	1	8	crossed	same	different	50	left	lower	left	upper	1	820	ses-1	8
sub-14	1	9	crossed	different	different	100	left	lower	right	upper	1	740	ses-1	9
sub-14	1	10	crossed	same	different	300	right	upper	right	lower	0	771	ses-1	10
sub-14	1	11	crossed	different	same	50	right	lower	left	lower	1	1077	ses-1	11
sub-14	1	13	crossed	same	different	50	right	lower	right	upper	1	1476	ses-1	12
sub-14	1	14	crossed	different	different	800	right	upper	left	lower	0	84	ses-1	13
sub-14	1	15	crossed	same	different	100	left	upper	left	lower	1	1089	ses-1	14
sub-14	1	16	crossed	different	same	50	left	lower	right	lower	1	969	ses-1	15
sub-14	1	17	crossed	different	same	300	right	lower	left	lower	0	1375	ses-1	16
sub-14	1	18	crossed	same	different	800	left	lower	left	upper	1	233	ses-1	17
sub-14	1	19	crossed	same	same	100	left	lower	left	lower	1	726	ses-1	18
sub-14	1	20	crossed	different	different	100	left	lower	right	upper	1	625	ses-1	19
sub-14	1	21	crossed	different	same	50	left	lower	right	lower	1	967	ses-1	20
sub-14	1	22	crossed	different	different	50	right	lower	left	upper	0	1348	ses-1	21
sub-14	1	23	crossed	same	same	800	right	lower	right	lower	1	997	ses-1	22
sub-14	1	24	crossed	same	same	100	right	lower	right	lower	1	866	ses-1	23
sub-14	1	25	crossed	different	different	50	left	upper	right	lower	0	1602	ses-1	24
sub-14	1	26	crossed	different	different	100	left	upper	right	lower	0	1338	ses-1	25
sub-14	1	27	crossed	same	different	50	left	upper	left	lower	1	1453	ses-1	26
sub-14	1	28	crossed	same	same	800	left	lower	left	lower	1	1199	ses-1	27
sub-14	1	29	crossed	different	same	800	left	lower	right	lower	1	1059	ses-1	28
sub-14	1	30	crossed	different	same	100	left	lower	right	lower	1	873	ses-1	29
sub-14	1	31	crossed	same	same	800	right	lower	right	lower	1	612	ses-1	30
sub-14	1	32	crossed	different	different	300	left	upper	right	lower	1	1228	ses-1	31
sub-14	1	33	crossed	different	different	300	right	upper	left	lower	1	1003	ses-1	32
sub-14	1	34	crossed	same	same	800	left	lower	left	lower	1	964	ses-1	33
sub-14	1	35	crossed	same	different	800	right	lower	right	upper	1	1555	ses-1	34
sub-14	1	36	crossed	different	different	50	right	upper	left	lower	1	1361	ses-1	35
sub-14	1	37	crossed	same	same	100	right	lower	right	lower	1	1475	ses-1	36
sub-14	1	38	crossed	same	same	50	right	lower	right	lower	1	1339	ses-1	37
sub-14	1	39	crossed	same	same	300	left	lower	left	lower	1	1179	ses-1	38
sub-14	1	40	crossed	different	different	800	right	lower	left	upper	1	1830	ses-1	39
sub-14	1	41	crossed	different	same	800	left	lower	right	lower	1	1203	ses-1	40
sub-14	1	42	crossed	same	different	100	left	upper	left	lower	1	1333	ses-1	41
sub-14	1	43	crossed	same	same	800	right	lower	right	lower	1	1214	ses-1	42
sub-14	1	44	crossed	different	same	800	right	lower	left	lower	1	986	ses-1	43
sub-14	1	45	crossed	same	different	100	right	upper	right	lower	1	1682	ses-1	44
sub-14	1	46	crossed	same	same	100	right	lower	right	lower	1	1319	ses-1	45
sub-14	1	47	crossed	different	same	50	right	lower	left	lower	1	1211	ses-1	46
sub-14	1	48	crossed	same	same	100	left	lower	left	lower	1	1112	ses-1	47
sub-14	1	49	crossed	different	different	100	left	upper	right	lower	0	1376	ses-1	48
sub-14	1	50	crossed	different	different	300	left	lower	right	upper	1	860	ses-1	49
sub-14	1	51	crossed	different	different	300	left	lower	right	upper	1	674	ses-1	50
sub-14	1	52	crossed	different	different	800	right	upper	left	lower	1	747	ses-1	51
sub-14	1	53	crossed	same	different	100	right	lower	right	upper	1	1278	ses-1	52
sub-14	1	54	crossed	same	different	300	right	upper	right	lower	1	1130	ses-1	53
sub-14	1	55	crossed	different	same	800	left	lower	right	lower	1	754	ses-1	54
sub-14	1	56	crossed	different	different	100	left	lower	right	upper	1	913	ses-1	55
sub-14	1	57	crossed	same	different	300	left	upper	left	lower	1	1153	ses-1	56
sub-14	1	58	crossed	different	same	100	right	lower	left	lower	1	900	ses-1	57
sub-14	1	59	crossed	different	different	800	left	lower	right	upper	1	1627	ses-1	58
sub-14	1	60	crossed	different	same	50	right	lower	left	lower	1	1489	ses-1	59
sub-14	1	61	crossed	same	same	800	left	lower	left	lower	1	1519	ses-1	60
sub-14	1	62	crossed	same	different	300	left	lower	left	upper	1	1017	ses-1	61
sub-14	1	63	crossed	same	same	50	left	lower	left	lower	1	1290	ses-1	62
sub-14	1	64	crossed	different	same	100	right	lower	left	lower	1	711	ses-1	63
sub-14	1	65	crossed	same	different	300	left	upper	left	lower	1	1311	ses-1	64
sub-14	1	66	crossed	same	different	800	right	upper	right	lower	1	1789	ses-1	65
sub-14	1	67	crossed	different	different	100	right	upper	left	lower	1	864	ses-1	66
sub-14	1	68	crossed	different	different	100	right	upper	left	lower	1	1459	ses-1	67
sub-14	1	69	crossed	same	same	800	left	lower	left	lower	1	1367	ses-1	68
sub-14	1	70	crossed	different	different	50	right	upper	left	lower	1	763	ses-1	69
sub-14	1	71	crossed	same	same	100	right	lower	right	lower	1	1659	ses-1	70
sub-14	1	72	crossed	same	same	50	left	lower	left	lower	1	1486	ses-1	71
sub-14	1	73	crossed	different	same	50	right	lower	left	lower	1	597	ses-1	72
sub-14	1	74	crossed	same	same	100	left	lower	left	lower	0	1610	ses-1	73
sub-14	1	75	crossed	same	different	300	left	lower	left	upper	1	779	ses-1	74
sub-14	1	76	crossed	different	same	50	right	lower	left	lower	1	1344	ses-1	75
sub-14	1	77	crossed	same	same	800	right	lower	right	lower	1	1478	ses-1	76
sub-14	1	78	crossed	different	different	50	right	lower	left	upper	1	1799	ses-1	77
sub-14	1	79	crossed	different	different	50	left	lower	right	upper	1	969	ses-1	78
sub-14	1	80	crossed	same	same	50	right	lower	right	lower	1	1394	ses-1	79
sub-14	1	81	crossed	different	different	300	left	lower	right	upper	1	956	ses-1	80
sub-14	1	82	crossed	same	different	300	right	lower	right	upper	1	1144	ses-1	81
sub-14	1	83	crossed	same	same	100	right	lower	right	lower	1	1339	ses-1	82
sub-14	1	84	crossed	different	different	800	left	upper	right	lower	1	1023	ses-1	83
sub-14	1	85	crossed	different	same	100	left	lower	right	lower	1	1604	ses-1	84
sub-14	1	86	crossed	different	same	800	left	lower	right	lower	1	1025	ses-1	85
sub-14	1	87	crossed	different	same	100	right	lower	left	lower	1	2092	ses-1	86
sub-14	1	88	crossed	same	same	50	left	lower	left	lower	1	1239	ses-1	87
sub-14	1	89	crossed	different	different	300	left	lower	right	upper	1	934	ses-1	88
sub-14	1	90	crossed	different	different	800	right	upper	left	lower	1	1419	ses-1	89
sub-14	1	91	crossed	same	different	300	right	upper	right	lower	1	1437	ses-1	90
sub-14	1	92	crossed	same	same	50	right	lower	right	lower	1	1411	ses-1	91
sub-14	1	93	crossed	different	same	300	right	lower	left	lower	1	867	ses-1	92
sub-14	1	95	crossed	same	different	800	left	lower	left	upper	1	764	ses-1	93
sub-14	1	96	crossed	different	different	100	left	lower	right	upper	1	849	ses-1	94
sub-14	1	97	crossed	different	different	50	right	upper	left	lower	1	945	ses-1	95
sub-14	1	98	crossed	same	same	800	right	lower	right	lower	1	254	ses-1	96
sub-14	1	99	crossed	same	different	800	right	upper	right	lower	1	1146	ses-1	97
sub-14	1	100	crossed	same	different	300	left	upper	left	lower	1	1485	ses-1	98
sub-14	1	101	crossed	different	same	300	right	lower	left	lower	1	932	ses-1	99
sub-14	1	102	crossed	same	same	50	right	lower	right	lower	1	1115	ses-1	100
sub-14	1	103	crossed	same	different	800	left	upper	left	lower	1	1230	ses-1	101
sub-14	1	104	crossed	same	same	100	left	lower	left	lower	1	1232	ses-1	102
sub-14	1	105	crossed	same	same	300	right	lower	right	lower	1	1347	ses-1	103
sub-14	1	106	crossed	different	different	800	right	lower	left	upper	1	2008	ses-1	104
sub-14	1	107	crossed	same	different	100	left	lower	left	upper	1	1506	ses-1	105
sub-14	1	108	crossed	different	same	100	right	lower	left	lower	1	690	ses-1	106
sub-14	1	109	crossed	different	same	800	left	lower	right	lower	1	1113	ses-1	107
sub-14	1	110	crossed	different	different	100	right	lower	left	upper	1	1612	ses-1	108
sub-14	1	111	crossed	different	different	800	right	upper	left	lower	1	1137	ses-1	109
sub-14	1	112	crossed	different	same	300	right	lower	left	lower	1	894	ses-1	110
sub-14	1	113	crossed	different	different	800	left	lower	right	upper	1	1818	ses-1	111
sub-14	1	114	crossed	same	same	300	right	lower	right	lower	1	1845	ses-1	112
sub-14	1	115	crossed	same	same	50	left	lower	left	lower	1	2960	ses-1	113
sub-14	1	116	crossed	different	different	100	right	lower	left	upper	0	1434	ses-1	114
sub-14	1	117	crossed	same	different	800	left	lower	left	upper	1	1052	ses-1	115
sub-14	1	118	crossed	different	different	300	right	upper	left	lower	1	1057	ses-1	116
sub-14	1	119	crossed	different	same	100	right	lower	left	lower	1	1609	ses-1	117
sub-14	1	120	crossed	different	different	800	left	upper	right	lower	0	1291	ses-1	118
sub-14	1	121	crossed	different	different	300	right	lower	left	upper	0	2081	ses-1	119
sub-14	1	122	crossed	different	different	50	left	lower	right	upper	1	1342	ses-1	120
sub-14	1	123	crossed	same	same	800	left	lower	left	lower	1	1477	ses-1	121
sub-14	1	124	crossed	different	different	800	right	lower	left	upper	1	1926	ses-1	122
sub-14	1	125	crossed	different	same	300	left	lower	right	lower	1	1113	ses-1	123
sub-14	1	126	crossed	different	different	800	left	lower	right	upper	1	1703	ses-1	124
sub-14	1	127	crossed	same	different	100	left	upper	left	lower	1	1303	ses-1	125
sub-14	1	128	crossed	same	different	300	right	lower	right	upper	1	1134	ses-1	126
sub-14	1	129	crossed	same	different	100	left	lower	left	upper	1	1284	ses-1	127
sub-14	1	130	crossed	different	different	50	left	lower	right	upper	1	2877	ses-1	128
sub-14	1	131	crossed	different	same	50	left	lower	right	lower	1	1046	ses-1	129
sub-14	1	132	crossed	same	same	100	left	lower	left	lower	1	1086	ses-1	130
sub-14	1	133	crossed	different	different	300	right	lower	left	upper	0	2687	ses-1	131
sub-14	1	134	crossed	same	different	800	right	upper	right	lower	1	1088	ses-1	132
sub-14	1	135	crossed	same	different	100	left	lower	left	upper	1	1165	ses-1	133
sub-14	1	136	crossed	same	same	100	right	lower	right	lower	1	1287	ses-1	134
sub-14	1	137	crossed	same	different	800	left	lower	left	upper	1	696	ses-1	135
sub-14	1	138	crossed	different	different	100	left	upper	right	lower	1	1469	ses-1	136
sub-14	1	139	crossed	different	different	100	right	lower	left	upper	1	1942	ses-1	137
sub-14	1	140	crossed	different	different	100	left	lower	right	upper	0	829	ses-1	138
sub-14	1	141	crossed	different	different	50	left	upper	right	lower	0	2826	ses-1	139
sub-14	1	142	crossed	same	same	50	left	lower	left	lower	1	980	ses-1	140
sub-14	1	143	crossed	same	same	300	right	lower	right	lower	0	1044	ses-1	141
sub-14	1	144	crossed	different	different	50	left	upper	right	lower	0	2238	ses-1	142
sub-14	1	145	crossed	different	same	100	left	lower	right	lower	1	1287	ses-1	143
sub-14	1	146	crossed	different	different	800	left	upper	right	lower	0	1134	ses-1	144
sub-14	1	147	crossed	same	different	300	right	upper	right	lower	1	1332	ses-1	145
sub-14	1	148	crossed	same	different	300	right	upper	right	lower	1	1084	ses-1	146
sub-14	1	149	crossed	different	different	50	right	lower	left	upper	0	1760	ses-1	147
sub-14	1	150	crossed	different	different	50	right	lower	left	upper	1	803	ses-1	148
sub-14	1	151	crossed	same	same	50	left	lower	left	lower	1	1197	ses-1	149
sub-14	1	152	crossed	same	different	100	left	lower	left	upper	1	1370	ses-1	150
sub-14	1	153	crossed	same	same	300	right	lower	right	lower	1	1696	ses-1	151
sub-14	1	154	crossed	different	different	50	right	upper	left	lower	1	890	ses-1	152
sub-14	1	155	crossed	same	same	100	right	lower	right	lower	1	1520	ses-1	153
sub-14	1	156	crossed	same	same	100	left	lower	left	lower	1	1412	ses-1	154
sub-14	1	157	crossed	different	same	50	right	lower	left	lower	1	1075	ses-1	155
sub-14	1	158	crossed	different	same	100	right	lower	left	lower	1	1795	ses-1	156
sub-14	1	159	crossed	same	different	800	left	lower	left	upper	1	2122	ses-1	157
sub-14	1	160	crossed	same	same	100	right	lower	right	lower	1	1387	ses-1	158
sub-14	1	161	crossed	different	different	50	left	lower	right	upper	1	1635	ses-1	159
sub-14	1	162	crossed	same	same	800	right	lower	right	lower	1	1364	ses-1	160
sub-14	1	163	crossed	same	different	100	left	lower	left	upper	1	2193	ses-1	161
sub-14	1	164	crossed	same	different	50	right	upper	right	lower	1	1473	ses-1	162
sub-14	1	165	crossed	different	same	50	right	lower	left	lower	1	892	ses-1	163
sub-14	1	166	crossed	different	same	300	right	lower	left	lower	1	976	ses-1	164
sub-14	1	167	crossed	different	same	50	left	lower	right	lower	1	1686	ses-1	165
sub-14	1	168	crossed	same	different	300	right	lower	right	upper	1	956	ses-1	166
sub-14	1	169	crossed	same	same	300	right	lower	right	lower	1	1246	ses-1	167
sub-14	1	170	crossed	different	different	100	right	upper	left	lower	1	1087	ses-1	168
sub-14	1	171	crossed	different	different	800	left	lower	right	upper	1	1075	ses-1	169
sub-14	1	172	crossed	different	same	100	left	lower	right	lower	1	1290	ses-1	170
sub-14	1	173	crossed	different	different	50	right	upper	left	lower	1	1518	ses-1	171
sub-14	1	174	crossed	different	same	50	right	lower	left	lower	1	1496	ses-1	172
sub-14	1	175	crossed	different	same	100	right	lower	left	lower	1	2079	ses-1	173
sub-14	1	176	crossed	same	different	800	left	upper	left	lower	1	1078	ses-1	174
sub-14	1	177	crossed	different	same	300	left	lower	right	lower	1	950	ses-1	175
sub-14	1	178	crossed	same	same	300	left	lower	left	lower	1	1052	ses-1	176
sub-14	1	179	crossed	different	different	800	left	upper	right	lower	1	2666	ses-1	177
sub-14	1	180	crossed	same	same	800	right	lower	right	lower	1	1181	ses-1	178
sub-14	1	181	crossed	different	different	800	right	lower	left	upper	1	1093	ses-1	179
sub-14	1	182	crossed	same	same	300	right	lower	right	lower	1	1096	ses-1	180
sub-14	1	183	crossed	same	different	800	left	upper	left	lower	1	1191	ses-1	181
sub-14	1	184	crossed	different	same	300	right	lower	left	lower	1	804	ses-1	182
sub-14	1	185	crossed	same	different	50	left	lower	left	upper	1	1280	ses-1	183
sub-14	1	186	crossed	same	different	50	right	lower	right	upper	1	1128	ses-1	184
sub-14	1	187	crossed	different	same	800	left	lower	right	lower	1	936	ses-1	185
sub-14	1	188	crossed	same	different	300	left	lower	left	upper	1	854	ses-1	186
sub-14	1	189	crossed	same	same	800	right	lower	right	lower	1	1436	ses-1	187
sub-14	1	190	crossed	same	different	100	right	upper	right	lower	1	1308	ses-1	188
sub-14	1	191	crossed	different	same	300	left	lower	right	lower	1	784	ses-1	189
sub-14	1	192	crossed	same	same	800	left	lower	left	lower	1	822	ses-1	190
sub-14	1	193	crossed	same	different	800	right	lower	right	upper	1	776	ses-1	191
sub-14	1	194	crossed	different	different	300	right	lower	left	upper	1	1285	ses-1	192
sub-14	1	195	crossed	same	different	50	left	upper	left	lower	1	1109	ses-1	193
sub-14	1	196	crossed	different	same	800	right	lower	left	lower	1	1152	ses-1	194
sub-14	1	197	crossed	same	different	50	right	upper	right	lower	1	1609	ses-1	195
sub-14	1	198	crossed	same	different	100	left	upper	left	lower	1	1543	ses-1	196
sub-14	1	199	crossed	same	same	50	left	lower	left	lower	1	1024	ses-1	197
sub-14	1	200	crossed	different	different	50	left	upper	right	lower	1	1405	ses-1	198
sub-14	1	201	crossed	different	same	100	right	lower	left	lower	1	822	ses-1	199
sub-14	1	202	crossed	same	different	300	right	lower	right	upper	1	1115	ses-1	200
sub-14	1	203	crossed	different	same	300	left	lower	right	lower	1	896	ses-1	201
sub-14	1	204	crossed	different	different	100	right	lower	left	upper	0	1542	ses-1	202
sub-14	1	205	crossed	same	different	800	right	lower	right	upper	1	1019	ses-1	203
sub-14	1	206	crossed	different	different	50	right	lower	left	upper	1	1525	ses-1	204
sub-14	1	207	crossed	same	same	100	left	lower	left	lower	1	1539	ses-1	205
sub-14	1	208	crossed	same	different	300	left	lower	left	upper	1	1038	ses-1	206
sub-14	1	209	crossed	same	different	800	right	upper	right	lower	1	1490	ses-1	207
sub-14	1	210	crossed	different	different	100	right	lower	left	upper	1	1458	ses-1	208
sub-14	1	211	crossed	same	same	50	left	lower	left	lower	1	908	ses-1	209
sub-14	1	212	crossed	different	different	50	right	upper	left	lower	1	1906	ses-1	210
sub-14	1	213	crossed	different	same	50	right	lower	left	lower	1	1411	ses-1	211
sub-14	1	214	crossed	different	same	50	left	lower	right	lower	1	1324	ses-1	212
sub-14	1	215	crossed	same	same	100	right	lower	right	lower	1	1193	ses-1	213
sub-14	1	216	crossed	different	same	50	left	lower	right	lower	1	1022	ses-1	214
sub-14	1	217	crossed	same	different	100	right	lower	right	upper	1	1124	ses-1	215
sub-14	1	218	crossed	same	different	50	left	lower	left	upper	1	1053	ses-1	216
sub-14	1	219	crossed	same	same	800	right	lower	right	lower	1	1277	ses-1	217
sub-14	1	220	crossed	same	same	50	right	lower	right	lower	1	1555	ses-1	218
sub-14	1	221	crossed	same	same	300	left	lower	left	lower	1	1588	ses-1	219
sub-14	1	222	crossed	same	different	50	left	upper	left	lower	1	1243	ses-1	220
sub-14	1	223	crossed	different	same	300	left	lower	right	lower	1	1000	ses-1	221
sub-14	1	224	crossed	same	same	300	right	lower	right	lower	1	1514	ses-1	222
sub-14	1	225	crossed	same	same	50	right	lower	right	lower	1	1562	ses-1	223
sub-14	1	226	crossed	same	same	100	left	lower	left	lower	1	1713	ses-1	224
sub-14	1	227	crossed	same	same	300	left	lower	left	lower	1	1693	ses-1	225
sub-14	1	228	crossed	same	same	100	left	lower	left	lower	1	1245	ses-1	226
sub-14	1	229	crossed	different	same	800	right	lower	left	lower	1	1221	ses-1	227
sub-14	1	230	crossed	same	same	300	right	lower	right	lower	0	1370	ses-1	228
sub-14	1	231	crossed	different	different	100	left	upper	right	lower	1	2826	ses-1	229
sub-14	1	232	crossed	same	same	100	right	lower	right	lower	0	1884	ses-1	230
sub-14	1	233	crossed	same	different	800	right	lower	right	upper	1	1046	ses-1	231
sub-14	1	234	crossed	same	same	300	left	lower	left	lower	1	922	ses-1	232
sub-14	1	235	crossed	different	same	100	left	lower	right	lower	1	1174	ses-1	233
sub-14	1	236	crossed	same	same	100	left	lower	left	lower	1	1135	ses-1	234
sub-14	1	237	crossed	different	same	800	left	lower	right	lower	1	865	ses-1	235
sub-14	1	238	crossed	same	same	800	left	lower	left	lower	1	850	ses-1	236
sub-14	1	239	crossed	different	same	800	left	lower	right	lower	1	1004	ses-1	237
sub-14	1	240	crossed	different	same	100	left	lower	right	lower	1	1283	ses-1	238
sub-14	1	241	crossed	different	same	50	right	lower	left	lower	1	1313	ses-1	239
sub-14	1	242	crossed	same	different	100	right	upper	right	lower	1	1644	ses-1	240
sub-14	1	243	crossed	different	same	50	left	lower	right	lower	0	1474	ses-1	241
sub-14	1	244	crossed	same	different	50	right	lower	right	upper	1	2269	ses-1	242
sub-14	1	245	crossed	different	same	800	right	lower	left	lower	1	1017	ses-1	243
sub-14	1	246	crossed	different	same	800	right	lower	left	lower	1	857	ses-1	244
sub-14	1	247	crossed	same	different	50	left	upper	left	lower	1	1137	ses-1	245
sub-14	1	248	crossed	different	different	300	left	lower	right	upper	1	947	ses-1	246
sub-14	1	249	crossed	same	different	800	right	lower	right	upper	1	1105	ses-1	247
sub-14	1	250	crossed	different	different	100	left	upper	right	lower	0	2826	ses-1	248
sub-14	1	251	crossed	same	different	800	left	upper	left	lower	1	1191	ses-1	249
sub-14	1	252	crossed	same	same	100	left	lower	left	lower	1	872	ses-1	250
sub-14	1	253	crossed	different	different	100	right	upper	left	lower	1	733	ses-1	251
sub-14	1	254	crossed	same	different	100	right	upper	right	lower	0	1295	ses-1	252
sub-14	1	255	crossed	different	different	300	left	upper	right	lower	0	1296	ses-1	253
sub-14	1	256	crossed	different	different	800	left	upper	right	lower	1	1217	ses-1	254
sub-14	1	257	crossed	different	same	300	right	lower	left	lower	1	1034	ses-1	255
sub-14	1	259	crossed	same	different	300	left	lower	left	upper	1	1072	ses-1	256
sub-14	1	260	crossed	same	different	800	right	lower	right	upper	1	1218	ses-1	257
sub-14	1	261	crossed	same	same	800	right	lower	right	lower	1	980	ses-1	258
sub-14	1	262	crossed	different	same	100	left	lower	right	lower	1	703	ses-1	259
sub-14	1	263	crossed	same	different	100	right	upper	right	lower	1	1431	ses-1	260
sub-14	1	264	crossed	same	same	300	left	lower	left	lower	1	1112	ses-1	261
sub-14	1	265	crossed	same	same	800	left	lower	left	lower	1	1277	ses-1	262
sub-14	1	266	crossed	different	same	100	right	lower	left	lower	1	1369	ses-1	263
sub-14	1	267	crossed	different	same	800	left	lower	right	lower	0	266	ses-1	264
sub-14	1	268	crossed	different	same	50	right	lower	left	lower	1	992	ses-1	265
sub-14	1	269	crossed	same	same	100	right	lower	right	lower	1	1222	ses-1	266
sub-14	1	270	crossed	different	same	800	right	lower	left	lower	1	916	ses-1	267
sub-14	1	271	crossed	same	different	100	left	lower	left	upper	1	1098	ses-1	268
sub-14	1	272	crossed	different	different	50	left	lower	right	upper	1	992	ses-1	269
sub-14	1	273	crossed	different	different	300	right	upper	left	lower	1	1381	ses-1	270
sub-14	1	274	crossed	different	different	800	left	lower	right	upper	1	1126	ses-1	271
sub-14	1	275	crossed	different	same	800	left	lower	right	lower	1	1839	ses-1	272
sub-14	1	276	crossed	different	different	800	right	lower	left	upper	1	1048	ses-1	273
sub-14	1	277	crossed	different	same	300	right	lower	left	lower	1	1816	ses-1	274
sub-14	1	278	crossed	different	same	100	right	lower	left	lower	1	950	ses-1	275
sub-14	1	279	crossed	different	same	300	left	lower	right	lower	1	889	ses-1	276
sub-14	1	280	crossed	different	same	50	left	lower	right	lower	1	1949	ses-1	277
sub-14	1	281	crossed	same	same	300	left	lower	left	lower	1	982	ses-1	278
sub-14	1	282	crossed	different	different	100	left	upper	right	lower	1	1181	ses-1	279
sub-14	1	283	crossed	different	different	50	left	lower	right	upper	1	1737	ses-1	280
sub-14	1	284	crossed	different	same	300	right	lower	left	lower	1	1164	ses-1	281
sub-14	1	285	crossed	same	different	800	left	lower	left	upper	1	765	ses-1	282
sub-14	1	286	crossed	same	different	50	left	upper	left	lower	1	1011	ses-1	283
sub-14	1	287	crossed	different	same	50	left	lower	right	lower	1	868	ses-1	284
sub-14	1	288	crossed	different	different	800	right	lower	left	upper	1	1547	ses-1	285
sub-14	1	289	crossed	same	same	50	right	lower	right	lower	1	1146	ses-1	286
sub-14	1	290	crossed	different	different	300	right	upper	left	lower	1	968	ses-1	287
sub-14	1	291	crossed	same	different	50	left	lower	left	upper	1	1131	ses-1	288
sub-14	1	292	crossed	different	same	300	right	lower	left	lower	1	883	ses-1	289
sub-14	1	293	crossed	same	same	800	right	lower	right	lower	1	1021	ses-1	290
sub-14	1	294	crossed	different	same	800	right	lower	left	lower	1	1451	ses-1	291
sub-14	1	295	crossed	same	same	50	right	lower	right	lower	1	1154	ses-1	292
sub-14	1	296	crossed	same	different	100	right	lower	right	upper	1	1254	ses-1	293
sub-14	1	297	crossed	different	same	100	right	lower	left	lower	1	1358	ses-1	294
sub-14	1	298	crossed	same	different	50	left	lower	left	upper	1	1211	ses-1	295
sub-14	1	299	crossed	different	same	100	left	lower	right	lower	1	1128	ses-1	296
sub-14	1	300	crossed	different	different	300	right	upper	left	lower	1	1028	ses-1	297
sub-14	1	301	crossed	different	same	100	left	lower	right	lower	1	1321	ses-1	298
sub-14	1	302	crossed	same	different	50	right	upper	right	lower	1	1064	ses-1	299
sub-14	1	303	crossed	same	different	100	right	upper	right	lower	1	1018	ses-1	300
sub-14	1	304	crossed	same	same	800	left	lower	left	lower	1	1203	ses-1	301
sub-14	1	305	crossed	same	same	300	right	lower	right	lower	1	1604	ses-1	302
sub-14	1	306	crossed	same	different	100	right	lower	right	upper	1	1309	ses-1	303
sub-14	1	307	crossed	same	different	50	right	lower	right	upper	1	1647	ses-1	304
sub-14	1	308	crossed	same	same	300	right	lower	right	lower	1	1249	ses-1	305
sub-14	1	309	crossed	different	same	50	right	lower	left	lower	0	1738	ses-1	306
sub-14	1	310	crossed	same	same	300	left	lower	left	lower	1	1117	ses-1	307
sub-14	1	311	crossed	same	same	300	right	lower	right	lower	1	998	ses-1	308
sub-14	1	312	crossed	different	same	800	left	lower	right	lower	1	1080	ses-1	309
sub-14	1	313	crossed	same	same	50	right	lower	right	lower	1	1509	ses-1	310
sub-14	1	314	crossed	different	different	50	right	lower	left	upper	1	1758	ses-1	311
sub-14	1	315	crossed	same	same	800	left	lower	left	lower	1	1260	ses-1	312
sub-14	1	316	crossed	same	same	50	left	lower	left	lower	1	948	ses-1	313
sub-14	1	317	crossed	same	different	100	right	lower	right	upper	1	1208	ses-1	314
sub-14	1	318	crossed	different	different	800	left	lower	right	upper	0	182	ses-1	315
sub-14	1	319	crossed	same	different	300	left	upper	left	lower	1	860	ses-1	316
sub-14	1	320	crossed	different	different	300	left	upper	right	lower	1	800	ses-1	317
sub-14	1	321	crossed	different	different	100	right	upper	left	lower	1	763	ses-1	318
sub-14	1	322	crossed	same	different	300	right	lower	right	upper	1	1215	ses-1	319
sub-14	1	323	crossed	different	different	300	left	upper	right	lower	1	1100	ses-1	320
sub-14	1	324	crossed	different	different	300	right	lower	left	upper	1	1830	ses-1	321
sub-14	1	325	crossed	different	different	800	right	upper	left	lower	1	1045	ses-1	322
sub-14	1	326	crossed	different	different	300	right	lower	left	upper	0	1765	ses-1	323
sub-14	1	327	crossed	different	same	800	right	lower	left	lower	1	1258	ses-1	324
sub-14	1	328	crossed	same	same	50	left	lower	left	lower	1	1231	ses-1	325
sub-14	1	329	crossed	same	different	50	right	upper	right	lower	1	1455	ses-1	326
sub-14	1	330	crossed	different	different	800	left	upper	right	lower	0	1409	ses-1	327
sub-14	1	331	crossed	same	different	300	right	upper	right	lower	1	1165	ses-1	328
sub-14	1	332	crossed	same	same	100	right	lower	right	lower	1	1092	ses-1	329
sub-14	1	333	crossed	different	different	300	left	upper	right	lower	1	1026	ses-1	330
sub-14	1	334	crossed	different	same	100	right	lower	left	lower	1	1017	ses-1	331
sub-14	1	335	crossed	different	same	800	right	lower	left	lower	1	904	ses-1	332
sub-14	1	336	crossed	different	same	300	left	lower	right	lower	1	1804	ses-1	333
sub-14	1	337	crossed	same	different	100	right	lower	right	upper	1	2759	ses-1	334
sub-14	1	338	crossed	different	different	300	right	lower	left	upper	0	1177	ses-1	335
sub-14	1	339	crossed	different	same	800	right	lower	left	lower	1	1021	ses-1	336
sub-14	1	340	crossed	same	same	300	left	lower	left	lower	1	1117	ses-1	337
sub-14	1	341	crossed	same	different	300	left	lower	left	upper	1	1309	ses-1	338
sub-14	1	342	crossed	different	same	50	left	lower	right	lower	1	1416	ses-1	339
sub-14	1	343	crossed	different	same	800	right	lower	left	lower	0	872	ses-1	340
sub-14	1	344	crossed	different	same	300	left	lower	right	lower	1	1840	ses-1	341
sub-14	1	345	crossed	same	same	300	left	lower	left	lower	1	1128	ses-1	342
sub-14	1	346	crossed	different	same	100	left	lower	right	lower	1	1221	ses-1	343
sub-14	1	347	crossed	same	different	800	right	upper	right	lower	1	1415	ses-1	344
sub-14	1	348	crossed	same	same	50	left	lower	left	lower	1	904	ses-1	345
sub-14	1	349	crossed	different	same	50	left	lower	right	lower	1	1049	ses-1	346
sub-14	1	350	crossed	different	same	300	left	lower	right	lower	1	1109	ses-1	347
sub-14	1	351	crossed	same	same	50	right	lower	right	lower	1	1429	ses-1	348
sub-14	1	352	crossed	same	different	100	left	upper	left	lower	1	1143	ses-1	349
sub-14	1	353	crossed	same	same	50	left	lower	left	lower	1	934	ses-1	350
sub-14	1	354	crossed	different	same	800	left	lower	right	lower	1	906	ses-1	351
sub-14	1	355	crossed	same	same	800	left	lower	left	lower	1	1263	ses-1	352
sub-14	1	356	crossed	same	different	50	right	upper	right	lower	1	1826	ses-1	353
sub-14	1	357	crossed	same	same	300	left	lower	left	lower	1	1511	ses-1	354
sub-14	1	358	crossed	same	different	800	left	upper	left	lower	1	1874	ses-1	355
sub-14	1	359	crossed	different	different	100	right	upper	left	lower	1	1821	ses-1	356
sub-14	1	360	crossed	same	different	300	left	upper	left	lower	1	1075	ses-1	357
sub-14	1	361	crossed	same	different	50	right	upper	right	lower	1	1422	ses-1	358
sub-14	1	362	crossed	same	different	800	left	upper	left	lower	1	1106	ses-1	359
sub-14	1	363	crossed	same	same	300	left	lower	left	lower	1	1063	ses-1	360
sub-14	1	364	crossed	different	same	300	right	lower	left	lower	1	1466	ses-1	361
sub-14	1	365	crossed	same	same	100	left	lower	left	lower	1	1021	ses-1	362
sub-14	1	366	crossed	same	same	800	right	lower	right	lower	0	1394	ses-1	363
sub-14	1	367	crossed	different	same	100	left	lower	right	lower	1	1642	ses-1	364
sub-14	1	368	crossed	same	different	100	left	upper	left	lower	1	1330	ses-1	365
sub-14	1	369	crossed	same	same	800	left	lower	left	lower	1	1002	ses-1	366
sub-14	1	370	crossed	same	different	50	left	lower	left	upper	1	1189	ses-1	367
sub-14	1	371	crossed	different	different	100	right	lower	left	upper	1	2539	ses-1	368
sub-14	1	372	crossed	same	different	300	right	lower	right	upper	1	1168	ses-1	369
sub-14	1	373	crossed	same	different	50	left	upper	left	lower	1	1085	ses-1	370
sub-14	1	374	crossed	different	same	800	right	lower	left	lower	1	1134	ses-1	371
sub-14	1	375	crossed	different	same	300	left	lower	right	lower	1	1246	ses-1	372
sub-14	1	376	crossed	same	same	300	right	lower	right	lower	1	1275	ses-1	373
sub-14	1	377	crossed	different	different	50	left	upper	right	lower	0	2437	ses-1	374
sub-14	1	378	crossed	different	different	300	left	upper	right	lower	1	1328	ses-1	375
sub-14	1	379	crossed	same	different	50	right	lower	right	upper	1	1403	ses-1	376
sub-14	1	380	crossed	same	different	300	left	upper	left	lower	1	929	ses-1	377
sub-14	1	381	crossed	different	same	300	left	lower	right	lower	1	855	ses-1	378
sub-14	1	382	crossed	different	same	300	left	lower	right	lower	1	814	ses-1	379
sub-14	1	383	crossed	same	different	800	right	upper	right	lower	1	1701	ses-1	380
sub-14	1	384	crossed	same	different	50	right	lower	right	upper	1	2385	ses-1	381
sub-14	1	385	crossed	different	different	800	right	upper	left	lower	1	958	ses-1	382
sub-14	1	386	crossed	different	same	100	left	lower	right	lower	1	921	ses-1	383
sub-14	1	387	crossed	different	different	50	left	upper	right	lower	0	1613	ses-1	384
sub-14	2	1	crossed	different	same	300	left	lower	right	lower	1	795	ses-1	385
sub-14	2	2	crossed	same	different	100	left	lower	left	upper	1	1572	ses-1	386
sub-14	2	3	crossed	same	same	300	right	lower	right	lower	0	773	ses-1	387
sub-14	2	4	crossed	different	same	300	left	lower	right	lower	1	798	ses-1	388
sub-14	2	5	crossed	different	different	300	left	lower	right	upper	1	1249	ses-1	389
sub-14	2	6	crossed	same	same	300	right	lower	right	lower	1	1378	ses-1	390
sub-14	2	7	crossed	different	different	300	right	lower	left	upper	1	1561	ses-1	391
sub-14	2	8	crossed	different	same	300	right	lower	left	lower	0	1187	ses-1	392
sub-14	2	9	crossed	different	same	100	left	lower	right	lower	1	1212	ses-1	393
sub-14	2	10	crossed	different	same	100	right	lower	left	lower	1	1119	ses-1	394
sub-14	2	11	crossed	same	different	800	right	upper	right	lower	1	1232	ses-1	395
sub-14	2	12	crossed	same	same	300	left	lower	left	lower	1	1283	ses-1	396
sub-14	2	13	crossed	same	same	50	left	lower	left	lower	1	1327	ses-1	397
sub-14	2	14	crossed	different	different	800	left	upper	right	lower	1	990	ses-1	398
sub-14	2	15	crossed	same	same	300	left	lower	left	lower	1	1022	ses-1	399
sub-14	2	16	crossed	same	different	100	left	upper	left	lower	1	1391	ses-1	400
sub-14	2	17	crossed	same	same	50	left	lower	left	lower	1	1297	ses-1	401
sub-14	2	18	crossed	same	same	100	left	lower	left	lower	1	1274	ses-1	402
sub-14	2	19	crossed	same	same	100	left	lower	left	lower	1	1049	ses-1	403
sub-14	2	20	crossed	same	same	300	left	lower	left	lower	1	1253	ses-1	404
sub-14	2	21	crossed	different	same	800	right	lower	left	lower	1	1002	ses-1	405
sub-14	2	22	crossed	different	same	50	right	lower	left	lower	1	1174	ses-1	406
sub-14	2	23	crossed	different	same	50	left	lower	right	lower	0	1070	ses-1	407
sub-14	2	24	crossed	same	same	50	left	lower	left	lower	1	1197	ses-1	408
sub-14	2	25	crossed	different	different	100	left	upper	right	lower	1	1542	ses-1	409
sub-14	2	26	crossed	same	same	300	right	lower	right	lower	1	1067	ses-1	410
sub-14	2	27	crossed	same	different	50	left	lower	left	upper	1	1398	ses-1	411
sub-14	2	28	crossed	different	different	800	left	upper	right	lower	0	1385	ses-1	412
sub-14	2	29	crossed	different	same	100	right	lower	left	lower	1	1464	ses-1	413
sub-14	2	30	crossed	different	different	50	right	lower	left	upper	1	1255	ses-1	414
sub-14	2	31	crossed	different	different	300	left	lower	right	upper	1	1906	ses-1	415
sub-14	2	32	crossed	same	same	50	right	lower	right	lower	1	1231	ses-1	416
sub-14	2	33	crossed	different	different	50	left	lower	right	upper	1	1317	ses-1	417
sub-14	2	34	crossed	same	different	100	right	lower	right	upper	1	1304	ses-1	418
sub-14	2	35	crossed	same	same	800	right	lower	right	lower	1	968	ses-1	419
sub-14	2	36	crossed	same	same	50	left	lower	left	lower	1	1220	ses-1	420
sub-14	2	37	crossed	same	different	50	right	upper	right	lower	1	1416	ses-1	421
sub-14	2	38	crossed	same	same	800	right	lower	right	lower	1	1030	ses-1	422
sub-14	2	39	crossed	same	same	800	right	lower	right	lower	1	1123	ses-1	423
sub-14	2	40	crossed	different	different	300	left	upper	right	lower	1	975	ses-1	424
sub-14	2	41	crossed	different	different	300	left	upper	right	lower	1	904	ses-1	425
sub-14	2	42	crossed	different	same	50	left	lower	right	lower	1	1265	ses-1	426
sub-14	2	43	crossed	same	same	800	right	lower	right	lower	1	971	ses-1	427
sub-14	2	45	crossed	same	different	100	left	lower	left	upper	1	1530	ses-1	428
sub-14	2	46	crossed	same	same	800	right	lower	right	lower	1	1143	ses-1	429
sub-14	2	47	crossed	different	different	800	right	lower	left	upper	1	889	ses-1	430
sub-14	2	48	crossed	same	same	50	left	lower	left	lower	1	1250	ses-1	431
sub-14	2	49	crossed	different	same	100	left	lower	right	lower	1	1983	ses-1	432
sub-14	2	50	crossed	different	same	800	left	lower	right	lower	1	891	ses-1	433
sub-14	2	51	crossed	different	same	100	left	lower	right	lower	1	1555	ses-1	434
sub-14	2	52	crossed	different	different	50	right	lower	left	upper	1	1958	ses-1	435
sub-14	2	53	crossed	different	different	800	right	lower	left	upper	1	701	ses-1	436
sub-14	2	54	crossed	same	same	300	right	lower	right	lower	1	1513	ses-1	437
sub-14	2	55	crossed	same	different	100	right	upper	right	lower	1	1524	ses-1	438
sub-14	2	56	crossed	different	different	100	left	upper	right	lower	1	800	ses-1	439
sub-14	2	57	crossed	different	same	50	left	lower	right	lower	1	2307	ses-1	440
sub-14	2	58	crossed	same	different	50	left	lower	left	upper	1	1279	ses-1	441
sub-14	2	59	crossed	same	same	300	left	lower	left	lower	1	1281	ses-1	442
sub-14	2	60	crossed	different	same	50	left	lower	right	lower	1	833	ses-1	443
sub-14	2	61	crossed	same	same	800	right	lower	right	lower	1	1382	ses-1	444
sub-14	2	62	crossed	same	different	800	right	lower	right	upper	1	715	ses-1	445
sub-14	2	63	crossed	same	same	100	left	lower	left	lower	1	1371	ses-1	446
sub-14	2	64	crossed	different	different	300	right	upper	left	lower	1	966	ses-1	447
sub-14	2	65	crossed	same	same	800	left	lower	left	lower	1	867	ses-1	448
sub-14	2	66	crossed	same	same	800	right	lower	right	lower	1	1047	ses-1	449
sub-14	2	67	crossed	different	different	100	right	upper	left	lower	1	1042	ses-1	450
sub-14	2	68	crossed	same	same	300	left	lower	left	lower	1	882	ses-1	451
sub-14	2	69	crossed	different	different	100	right	lower	left	upper	1	927	ses-1	452
sub-14	2	70	crossed	same	different	300	right	lower	right	upper	1	986	ses-1	453
sub-14	2	71	crossed	different	different	50	right	upper	left	lower	1	1168	ses-1	454
sub-14	2	72	crossed	same	different	100	left	lower	left	upper	1	807	ses-1	455
sub-14	2	73	crossed	different	different	800	left	lower	right	upper	1	885	ses-1	456
sub-14	2	74	crossed	different	different	100	right	lower	left	upper	1	1175	ses-1	457
sub-14	2	75	crossed	different	same	100	left	lower	right	lower	1	971	ses-1	458
sub-14	2	76	crossed	different	different	800	left	lower	right	upper	1	814	ses-1	459
sub-14	2	77	crossed	same	same	300	right	lower	right	lower	1	921	ses-1	460
sub-14	2	78	crossed	same	different	100	right	upper	right	lower	1	888	ses-1	461
sub-14	2	79	crossed	different	same	300	left	lower	right	lower	1	792	ses-1	462
sub-14	2	80	crossed	same	same	50	right	lower	right	lower	1	1215	ses-1	463
sub-14	2	81	crossed	same	different	300	right	lower	right	upper	1	1101	ses-1	464
sub-14	2	82	crossed	different	same	50	right	lower	left	lower	1	959	ses-1	465
sub-14	2	83	crossed	different	same	300	right	lower	left	lower	1	923	ses-1	466
sub-14	2	84	crossed	different	different	300	right	upper	left	lower	1	879	ses-1	467
sub-14	2	85	crossed	same	different	100	right	lower	right	upper	1	1533	ses-1	468
sub-14	2	86	crossed	different	different	300	right	upper	left	lower	1	893	ses-1	469
sub-14	2	87	crossed	same	same	100	right	lower	right	lower	1	1483	ses-1	470
sub-14	2	88	crossed	same	same	50	right	lower	right	lower	1	1468	ses-1	471
sub-14	2	89	crossed	same	same	50	left	lower	left	lower	1	1624	ses-1	472
sub-14	2	90	crossed	same	same	50	right	lower	right	lower	1	1365	ses-1	473
sub-14	2	91	crossed	same	different	300	left	lower	left	upper	1	1000	ses-1	474
sub-14	2	92	crossed	different	different	300	right	lower	left	upper	1	850	ses-1	475
sub-14	2	93	crossed	different	different	100	left	lower	right	upper	1	1226	ses-1	476
sub-14	2	94	crossed	same	different	100	right	upper	right	lower	1	1251	ses-1	477
sub-14	2	95	crossed	different	different	100	right	upper	left	lower	1	1098	ses-1	478
sub-14	2	96	crossed	different	same	800	left	lower	right	lower	1	880	ses-1	479
sub-14	2	97	crossed	same	different	50	left	upper	left	lower	1	1083	ses-1	480
sub-14	2	98	crossed	different	different	100	left	upper	right	lower	1	995	ses-1	481
sub-14	2	99	crossed	different	same	300	right	lower	left	lower	1	737	ses-1	482
sub-14	2	100	crossed	different	same	300	right	lower	left	lower	1	804	ses-1	483
sub-14	2	101	crossed	same	same	100	left	lower	left	lower	1	1004	ses-1	484
sub-14	2	102	crossed	different	same	300	left	lower	right	lower	1	691	ses-1	485
sub-14	2	103	crossed	different	same	800	right	lower	left	lower	1	708	ses-1	486
sub-14	2	104	crossed	same	different	100	left	upper	left	lower	1	1148	ses-1	487
sub-14	2	105	crossed	same	different	300	right	upper	right	lower	1	1408	ses-1	488
sub-14	2	106	crossed	same	different	800	left	upper	left	lower	1	1063	ses-1	489
sub-14	2	107	crossed	same	different	300	left	upper	left	lower	1	1119	ses-1	490
sub-14	2	108	crossed	same	different	100	right	lower	right	upper	1	1334	ses-1	491
sub-14	2	109	crossed	different	same	800	left	lower	right	lower	1	933	ses-1	492
sub-14	2	110	crossed	different	same	100	left	lower	right	lower	1	704	ses-1	493
sub-14	2	111	crossed	same	different	50	left	upper	left	lower	1	1006	ses-1	494
sub-14	2	112	crossed	different	same	100	left	lower	right	lower	1	848	ses-1	495
sub-14	2	113	crossed	same	same	50	left	lower	left	lower	1	922	ses-1	496
sub-14	2	114	crossed	same	same	100	left	lower	left	lower	1	885	ses-1	497
sub-14	2	115	crossed	same	different	50	right	upper	right	lower	1	1307	ses-1	498
sub-14	2	116	crossed	different	same	300	left	lower	right	lower	1	862	ses-1	499
sub-14	2	117	crossed	same	same	800	right	lower	right	lower	1	1000	ses-1	500
sub-14	2	118	crossed	same	same	100	right	lower	right	lower	1	1391	ses-1	501
sub-14	2	119	crossed	same	different	800	left	lower	left	upper	1	921	ses-1	502
sub-14	2	120	crossed	same	different	50	right	lower	right	upper	1	1528	ses-1	503
sub-14	2	121	crossed	same	same	800	right	lower	right	lower	1	1038	ses-1	504
sub-14	2	122	crossed	different	different	100	right	upper	left	lower	1	848	ses-1	505
sub-14	2	123	crossed	same	same	100	right	lower	right	lower	1	1052	ses-1	506
sub-14	2	124	crossed	same	different	50	right	upper	right	lower	1	1240	ses-1	507
sub-14	2	125	crossed	different	different	300	right	lower	left	upper	1	655	ses-1	508
sub-14	2	126	crossed	different	same	300	left	lower	right	lower	1	672	ses-1	509
sub-14	2	127	crossed	different	different	50	right	lower	left	upper	1	700	ses-1	510
sub-14	2	128	crossed	different	different	300	left	lower	right	upper	1	894	ses-1	511
sub-14	2	129	crossed	same	same	300	right	lower	right	lower	1	1149	ses-1	512
sub-14	2	130	crossed	same	different	50	right	upper	right	lower	1	1159	ses-1	513
sub-14	2	131	crossed	same	different	300	left	lower	left	upper	0	494	ses-1	514
sub-14	2	132	crossed	same	same	50	right	lower	right	lower	1	1228	ses-1	515
sub-14	2	133	crossed	different	different	800	right	lower	left	upper	1	874	ses-1	516
sub-14	2	134	crossed	different	different	50	left	upper	right	lower	1	845	ses-1	517
sub-14	2	135	crossed	same	different	800	left	lower	left	upper	1	802	ses-1	518
sub-14	2	136	crossed	same	different	100	right	lower	right	upper	1	1170	ses-1	519
sub-14	2	137	crossed	different	same	50	left	lower	right	lower	1	785	ses-1	520
sub-14	2	138	crossed	same	same	300	right	lower	right	lower	1	981	ses-1	521
sub-14	2	139	crossed	same	different	300	left	lower	left	upper	1	1247	ses-1	522
sub-14	2	140	crossed	different	same	100	left	lower	right	lower	1	814	ses-1	523
sub-14	2	141	crossed	same	same	100	left	lower	left	lower	1	931	ses-1	524
sub-14	2	142	crossed	different	different	50	left	upper	right	lower	1	998	ses-1	525
sub-14	2	143	crossed	different	same	50	right	lower	left	lower	1	1234	ses-1	526
sub-14	2	144	crossed	different	different	300	right	upper	left	lower	1	753	ses-1	527
sub-14	2	145	crossed	same	same	50	left	lower	left	lower	1	1578	ses-1	528
sub-14	2	146	crossed	same	same	800	left	lower	left	lower	1	881	ses-1	529
sub-14	2	147	crossed	different	different	100	left	upper	right	lower	1	906	ses-1	530
sub-14	2	148	crossed	same	same	50	left	lower	left	lower	1	851	ses-1	531
sub-14	2	149	crossed	different	same	300	right	lower	left	lower	1	764	ses-1	532
sub-14	2	150	crossed	same	different	50	right	lower	right	upper	1	1165	ses-1	533
sub-14	2	151	crossed	different	same	50	left	lower	right	lower	1	1302	ses-1	534
sub-14	2	152	crossed	different	different	100	right	upper	left	lower	1	947	ses-1	535
sub-14	2	153	crossed	same	different	100	right	upper	right	lower	1	1412	ses-1	536
sub-14	2	154	crossed	same	different	100	left	lower	left	upper	1	1059	ses-1	537
sub-14	2	155	crossed	same	same	800	left	lower	left	lower	1	635	ses-1	538
sub-14	2	156	crossed	different	same	100	left	lower	right	lower	1	814	ses-1	539
sub-14	2	157	crossed	different	different	50	right	lower	left	upper	1	2135	ses-1	540
sub-14	2	158	crossed	same	same	100	left	lower	left	lower	1	863	ses-1	541
sub-14	2	159	crossed	different	different	300	right	lower	left	upper	1	945	ses-1	542
sub-14	2	160	crossed	different	different	800	left	upper	right	lower	1	894	ses-1	543
sub-14	2	161	crossed	different	same	100	left	lower	right	lower	1	1073	ses-1	544
sub-14	2	162	crossed	different	different	800	right	upper	left	lower	1	911	ses-1	545
sub-14	2	163	crossed	different	different	800	right	lower	left	upper	1	752	ses-1	546
sub-14	2	164	crossed	same	different	50	left	upper	left	lower	1	883	ses-1	547
sub-14	2	165	crossed	different	different	800	right	lower	left	upper	1	865	ses-1	548
sub-14	2	166	crossed	same	same	800	right	lower	right	lower	1	1341	ses-1	549
sub-14	2	167	crossed	same	same	100	left	lower	left	lower	1	1815	ses-1	550
sub-14	2	168	crossed	same	different	800	right	lower	right	upper	1	1288	ses-1	551
sub-14	2	169	crossed	different	same	50	left	lower	right	lower	1	795	ses-1	552
sub-14	2	170	crossed	different	same	100	left	lower	right	lower	1	1080	ses-1	553
sub-14	2	171	crossed	same	different	800	left	upper	left	lower	1	1287	ses-1	554
sub-14	2	172	crossed	same	different	300	right	lower	right	upper	1	1112	ses-1	555
sub-14	2	173	crossed	same	same	800	right	lower	right	lower	1	1122	ses-1	556
sub-14	2	174	crossed	same	different	800	right	upper	right	lower	1	1294	ses-1	557
sub-14	2	175	crossed	different	same	800	right	lower	left	lower	1	839	ses-1	558
sub-14	2	176	crossed	same	same	800	left	lower	left	lower	1	1560	ses-1	559
sub-14	2	177	crossed	same	different	300	left	upper	left	lower	1	1431	ses-1	560
sub-14	2	178	crossed	same	same	800	left	lower	left	lower	1	1332	ses-1	561
sub-14	2	179	crossed	same	different	300	left	upper	left	lower	1	1527	ses-1	562
sub-14	2	180	crossed	same	same	50	right	lower	right	lower	1	1569	ses-1	563
sub-14	2	181	crossed	same	different	300	left	upper	left	lower	1	1453	ses-1	564
sub-14	2	182	crossed	different	different	800	left	lower	right	upper	1	811	ses-1	565
sub-14	2	183	crossed	same	same	50	left	lower	left	lower	1	1344	ses-1	566
sub-14	2	184	crossed	same	different	300	right	upper	right	lower	1	1216	ses-1	567
sub-14	2	185	crossed	different	same	800	left	lower	right	lower	1	770	ses-1	568
sub-14	2	186	crossed	same	different	300	right	upper	right	lower	1	1192	ses-1	569
sub-14	2	187	crossed	same	same	300	left	lower	left	lower	1	1046	ses-1	570
sub-14	2	188	crossed	same	same	300	left	lower	left	lower	1	1274	ses-1	571
sub-14	2	189	crossed	different	same	800	right	lower	left	lower	1	1015	ses-1	572
sub-14	2	190	crossed	same	different	50	right	lower	right	upper	1	1636	ses-1	573
sub-14	2	191	crossed	different	different	800	left	lower	right	upper	1	1005	ses-1	574
sub-14	2	192	crossed	different	different	50	left	lower	right	upper	1	1232	ses-1	575
sub-14	2	193	crossed	different	different	50	left	upper	right	lower	0	1632	ses-1	576
sub-14	2	194	crossed	different	different	50	left	lower	right	upper	1	851	ses-1	577
sub-14	2	195	crossed	same	same	50	right	lower	right	lower	1	1369	ses-1	578
sub-14	2	196	crossed	same	same	300	left	lower	left	lower	1	1025	ses-1	579
sub-14	2	197	crossed	same	same	300	left	lower	left	lower	1	1296	ses-1	580
sub-14	2	198	crossed	different	different	100	left	lower	right	upper	1	836	ses-1	581
sub-14	2	199	crossed	different	same	300	left	lower	right	lower	1	756	ses-1	582
sub-14	2	200	crossed	different	same	300	right	lower	left	lower	1	879	ses-1	583
sub-14	2	201	crossed	same	same	100	right	lower	right	lower	1	1315	ses-1	584
sub-14	2	202	crossed	same	different	800	left	lower	left	upper	1	996	ses-1	585
sub-14	2	203	crossed	different	same	50	right	lower	left	lower	1	965	ses-1	586
sub-14	2	204	crossed	different	different	100	right	upper	left	lower	1	684	ses-1	587
sub-14	2	205	crossed	different	same	50	right	lower	left	lower	1	1129	ses-1	588
sub-14	2	206	crossed	different	same	50	right	lower	left	lower	1	863	ses-1	589
sub-14	2	207	crossed	same	different	300	right	lower	right	upper	1	1167	ses-1	590
sub-14	2	208	crossed	same	different	800	left	upper	left	lower	1	1412	ses-1	591
sub-14	2	209	crossed	same	same	100	right	lower	right	lower	1	1349	ses-1	592
sub-14	2	210	crossed	different	same	800	left	lower	right	lower	1	1099	ses-1	593
sub-14	2	211	crossed	different	same	100	right	lower	left	lower	1	971	ses-1	594
sub-14	2	212	crossed	different	different	50	right	upper	left	lower	1	892	ses-1	595
sub-14	2	213	crossed	same	same	300	right	lower	right	lower	1	1272	ses-1	596
sub-14	2	214	crossed	different	same	800	left	lower	right	lower	1	810	ses-1	597
sub-14	2	215	crossed	same	different	800	right	lower	right	upper	1	1345	ses-1	598
sub-14	2	216	crossed	same	different	50	left	upper	left	lower	1	1193	ses-1	599
sub-14	2	217	crossed	same	same	800	left	lower	left	lower	1	1359	ses-1	600
sub-14	2	218	crossed	different	different	100	right	upper	left	lower	1	842	ses-1	601
sub-14	2	219	crossed	same	same	50	right	lower	right	lower	1	1524	ses-1	602
sub-14	2	220	crossed	same	different	100	left	lower	left	upper	1	951	ses-1	603
sub-14	2	221	crossed	same	same	800	right	lower	right	lower	1	1359	ses-1	604
sub-14	2	222	crossed	different	different	100	left	lower	right	upper	1	790	ses-1	605
sub-14	2	223	crossed	different	different	800	left	upper	right	lower	1	987	ses-1	606
sub-14	2	224	crossed	different	different	50	right	upper	left	lower	1	1129	ses-1	607
sub-14	2	225	crossed	different	different	50	right	upper	left	lower	1	827	ses-1	608
sub-14	2	226	crossed	different	same	300	right	lower	left	lower	1	772	ses-1	609
sub-14	2	227	crossed	same	same	100	left	lower	left	lower	1	1034	ses-1	610
sub-14	2	228	crossed	different	same	300	left	lower	right	lower	1	753	ses-1	611
sub-14	2	229	crossed	different	same	300	right	lower	left	lower	1	849	ses-1	612
sub-14	2	230	crossed	different	same	100	left	lower	right	lower	1	843	ses-1	613
sub-14	2	231	crossed	different	same	50	left	lower	right	lower	1	952	ses-1	614
sub-14	2	232	crossed	different	same	800	right	lower	left	lower	1	764	ses-1	615
sub-14	2	233	crossed	different	different	300	left	upper	right	lower	1	778	ses-1	616
sub-14	2	234	crossed	same	same	800	left	lower	left	lower	1	1337	ses-1	617
sub-14	2	235	crossed	same	different	300	left	lower	left	upper	1	1654	ses-1	618
sub-14	2	236	crossed	same	same	50	right	lower	right	lower	1	1586	ses-1	619
sub-14	2	237	crossed	different	same	100	right	lower	left	lower	1	889	ses-1	620
sub-14	2	238	crossed	same	same	50	right	lower	right	lower	1	1440	ses-1	621
sub-14	2	239	crossed	different	different	50	left	lower	right	upper	1	1185	ses-1	622
sub-14	2	240	crossed	same	same	100	left	lower	left	lower	1	924	ses-1	623
sub-14	2	241	crossed	different	same	50	right	lower	left	lower	1	829	ses-1	624
sub-14	2	242	crossed	same	different	800	right	upper	right	lower	1	1389	ses-1	625
sub-14	2	243	crossed	same	same	100	right	lower	right	lower	1	1459	ses-1	626
sub-14	2	244	crossed	same	different	800	right	upper	right	lower	1	1243	ses-1	627
sub-14	2	245	crossed	different	different	300	left	upper	right	lower	1	805	ses-1	628
sub-14	2	246	crossed	different	same	50	right	lower	left	lower	1	883	ses-1	629
sub-14	2	247	crossed	different	different	300	left	lower	right	upper	1	1077	ses-1	630
sub-14	2	248	crossed	same	different	300	right	upper	right	lower	1	1320	ses-1	631
sub-14	2	249	crossed	different	same	100	left	lower	right	lower	1	1042	ses-1	632
sub-14	2	250	crossed	same	different	50	left	lower	left	upper	1	1215	ses-1	633
sub-14	2	251	crossed	different	different	100	right	lower	left	upper	1	1070	ses-1	634
sub-14	2	252	crossed	same	same	300	right	lower	right	lower	1	1074	ses-1	635
sub-14	2	253	crossed	same	different	100	right	upper	right	lower	1	1597	ses-1	636
sub-14	2	254	crossed	different	same	100	right	lower	left	lower	1	1250	ses-1	637
sub-14	2	255	crossed	different	different	100	left	lower	right	upper	1	1229	ses-1	638
sub-14	2	256	crossed	same	different	800	right	upper	right	lower	1	1156	ses-1	639
sub-14	2	257	crossed	same	same	800	left	lower	left	lower	1	1170	ses-1	640
sub-14	2	258	crossed	different	different	100	left	upper	right	lower	0	2442	ses-1	641
sub-14	2	259	crossed	different	same	800	left	lower	right	lower	1	1199	ses-1	642
sub-14	2	260	crossed	different	same	300	right	lower	left	lower	1	805	ses-1	643
sub-14	2	261	crossed	same	different	50	left	lower	left	upper	1	1987	ses-1	644
sub-14	2	262	crossed	same	same	800	left	lower	left	lower	1	1091	ses-1	645
sub-14	2	263	crossed	different	same	800	right	lower	left	lower	1	995	ses-1	646
sub-14	2	264	crossed	different	different	50	left	upper	right	lower	0	2178	ses-1	647
sub-14	2	265	crossed	same	different	50	left	upper	left	lower	1	1249	ses-1	648
sub-14	2	266	crossed	different	same	50	right	lower	left	lower	1	1148	ses-1	649
sub-14	2	267	crossed	different	different	50	left	lower	right	upper	1	1160	ses-1	650
sub-14	2	268	crossed	same	same	100	right	lower	right	lower	0	2910	ses-1	651
sub-14	2	269	crossed	different	same	800	left	lower	right	lower	1	887	ses-1	652
sub-14	2	270	crossed	different	different	300	left	lower	right	upper	1	684	ses-1	653
sub-14	2	271	crossed	different	same	100	right	lower	left	lower	1	725	ses-1	654
sub-14	2	272	crossed	same	different	50	right	lower	right	upper	1	2633	ses-1	655
sub-14	2	273	crossed	different	different	50	left	lower	right	upper	1	851	ses-1	656
sub-14	2	274	crossed	different	different	800	left	lower	right	upper	1	632	ses-1	657
sub-14	2	275	crossed	different	different	100	left	lower	right	upper	1	617	ses-1	658
sub-14	2	276	crossed	different	different	50	right	lower	left	upper	0	1741	ses-1	659
sub-14	2	277	crossed	same	same	300	right	lower	right	lower	1	1198	ses-1	660
sub-14	2	278	crossed	same	same	100	left	lower	left	lower	1	1403	ses-1	661
sub-14	2	279	crossed	same	same	100	left	lower	left	lower	1	1051	ses-1	662
sub-14	2	280	crossed	different	same	800	left	lower	right	lower	1	2400	ses-1	663
sub-14	2	281	crossed	different	same	50	right	lower	left	lower	1	2557	ses-1	664
sub-14	2	282	crossed	same	different	100	left	upper	left	lower	1	1527	ses-1	665
sub-14	2	283	crossed	same	different	100	left	upper	left	lower	1	1092	ses-1	666
sub-14	2	284	crossed	different	different	800	right	upper	left	lower	1	1096	ses-1	667
sub-14	2	285	crossed	different	same	800	left	lower	right	lower	1	948	ses-1	668
sub-14	2	286	crossed	same	different	50	right	lower	right	upper	0	1549	ses-1	669
sub-14	2	287	crossed	same	different	300	left	lower	left	upper	1	1168	ses-1	670
sub-14	2	288	crossed	same	same	300	right	lower	right	lower	1	1239	ses-1	671
sub-14	2	289	crossed	different	same	100	right	lower	left	lower	0	1870	ses-1	672
sub-14	2	290	crossed	same	same	300	left	lower	left	lower	1	1335	ses-1	673
sub-14	2	291	crossed	different	different	100	right	lower	left	upper	1	2046	ses-1	674
sub-14	2	292	crossed	different	same	800	right	lower	left	lower	1	1036	ses-1	675
sub-14	2	293	crossed	same	different	300	right	upper	right	lower	1	1361	ses-1	676
sub-14	2	294	crossed	different	same	800	right	lower	left	lower	1	982	ses-1	677
sub-14	2	295	crossed	different	same	800	left	lower	right	lower	1	1819	ses-1	678
sub-14	2	296	crossed	same	different	50	right	lower	right	upper	1	2170	ses-1	679
sub-14	2	297	crossed	different	different	300	left	upper	right	lower	1	1851	ses-1	680
sub-14	2	298	crossed	different	same	100	right	lower	left	lower	1	900	ses-1	681
sub-14	2	299	crossed	different	same	300	left	lower	right	lower	1	746	ses-1	682
sub-14	2	300	crossed	different	same	300	right	lower	left	lower	1	810	ses-1	683
sub-14	2	301	crossed	different	different	300	right	lower	left	upper	1	1027	ses-1	684
sub-14	2	302	crossed	same	same	800	left	lower	left	lower	1	1245	ses-1	685
sub-14	2	303	crossed	different	same	100	right	lower	left	lower	1	1279	ses-1	686
sub-14	2	304	crossed	same	different	50	left	lower	left	upper	1	1758	ses-1	687
sub-14	2	305	crossed	different	same	300	left	lower	right	lower	1	1160	ses-1	688
sub-14	2	306	crossed	different	same	50	right	lower	left	lower	1	728	ses-1	689
sub-14	2	307	crossed	same	different	800	left	lower	left	upper	1	1018	ses-1	690
sub-14	2	308	crossed	different	same	800	right	lower	left	lower	1	743	ses-1	691
sub-14	2	309	crossed	different	same	800	left	lower	right	lower	1	641	ses-1	692
sub-14	2	310	crossed	different	different	800	right	upper	left	lower	1	660	ses-1	693
sub-14	2	311	crossed	different	different	300	right	upper	left	lower	1	776	ses-1	694
sub-14	2	312	crossed	different	same	800	right	lower	left	lower	1	510	ses-1	695
sub-14	2	313	crossed	same	different	100	right	lower	right	upper	0	1741	ses-1	696
sub-14	2	314	crossed	same	same	300	left	lower	left	lower	1	1477	ses-1	697
sub-14	2	315	crossed	different	different	800	left	upper	right	lower	1	796	ses-1	698
sub-14	2	316	crossed	same	same	100	right	lower	right	lower	1	1116	ses-1	699
sub-14	2	317	crossed	different	different	100	left	upper	right	lower	1	2265	ses-1	700
sub-14	2	318	crossed	same	different	50	right	upper	right	lower	1	950	ses-1	701
sub-14	2	319	crossed	same	different	100	left	lower	left	upper	1	1131	ses-1	702
sub-14	2	320	crossed	different	same	800	right	lower	left	lower	1	817	ses-1	703
sub-14	2	321	crossed	different	different	800	right	upper	left	lower	1	871	ses-1	704
sub-14	2	322	crossed	same	different	50	left	upper	left	lower	1	1125	ses-1	705
sub-14	2	323	crossed	different	same	300	right	lower	left	lower	1	936	ses-1	706
sub-14	2	324	crossed	same	different	800	left	lower	left	upper	1	815	ses-1	707
sub-14	2	325	crossed	same	different	300	left	upper	left	lower	1	1191	ses-1	708
sub-14	2	326	crossed	different	different	300	left	upper	right	lower	1	816	ses-1	709
sub-14	2	327	crossed	different	different	100	right	lower	left	upper	1	1105	ses-1	710
sub-14	2	328	crossed	same	same	100	right	lower	right	lower	1	1356	ses-1	711
sub-14	2	329	crossed	same	different	50	right	upper	right	lower	1	1071	ses-1	712
sub-14	2	330	crossed	different	different	300	right	upper	left	lower	1	720	ses-1	713
sub-14	2	331	crossed	different	same	50	right	lower	left	lower	1	1139	ses-1	714
sub-14	2	332	crossed	different	same	800	right	lower	left	lower	1	726	ses-1	715
sub-14	2	333	crossed	same	same	50	left	lower	left	lower	1	1063	ses-1	716
sub-14	2	334	crossed	same	same	50	right	lower	right	lower	1	1121	ses-1	717
sub-14	2	335	crossed	different	different	50	right	upper	left	lower	1	1025	ses-1	718
sub-14	2	336	crossed	same	same	100	right	lower	right	lower	1	1145	ses-1	719
sub-14	2	337	crossed	same	different	300	right	lower	right	upper	1	900	ses-1	720
sub-14	2	338	crossed	same	different	50	left	lower	left	upper	1	1183	ses-1	721
sub-14	2	339	crossed	same	different	800	left	lower	left	upper	1	1216	ses-1	722
sub-14	2	340	crossed	same	different	800	left	upper	left	lower	1	1464	ses-1	723
sub-14	2	341	crossed	same	same	300	left	lower	left	lower	1	1012	ses-1	724
sub-14	2	342	crossed	same	different	800	left	upper	left	lower	1	1031	ses-1	725
sub-14	2	343	crossed	same	different	100	right	upper	right	lower	1	1051	ses-1	726
sub-14	2	344	crossed	different	different	800	right	upper	left	lower	1	873	ses-1	727
sub-14	2	345	crossed	different	different	100	left	lower	right	upper	1	848	ses-1	728
sub-14	2	346	crossed	same	same	800	left	lower	left	lower	1	1002	ses-1	729
sub-14	2	347	crossed	same	different	300	left	lower	left	upper	1	1097	ses-1	730
sub-14	2	348	crossed	different	different	300	left	lower	right	upper	1	851	ses-1	731
sub-14	2	349	crossed	same	same	800	left	lower	left	lower	1	1050	ses-1	732
sub-14	2	350	crossed	same	different	800	right	lower	right	upper	1	762	ses-1	733
sub-14	2	351	crossed	different	same	300	right	lower	left	lower	1	674	ses-1	734
sub-14	2	352	crossed	same	different	100	left	upper	left	lower	1	933	ses-1	735
sub-14	2	353	crossed	different	same	50	left	lower	right	lower	1	815	ses-1	736
sub-14	2	354	crossed	same	different	100	right	lower	right	upper	1	1337	ses-1	737
sub-14	2	355	crossed	different	different	300	right	lower	left	upper	1	1048	ses-1	738
sub-14	2	356	crossed	different	different	800	right	lower	left	upper	1	876	ses-1	739
sub-14	2	357	crossed	different	same	300	left	lower	right	lower	1	757	ses-1	740
sub-14	2	358	crossed	different	different	800	left	lower	right	upper	1	525	ses-1	741
sub-14	2	359	crossed	same	different	300	left	upper	left	lower	1	1728	ses-1	742
sub-14	2	360	crossed	different	different	800	left	upper	right	lower	1	947	ses-1	743
sub-14	2	361	crossed	different	different	50	right	lower	left	upper	1	1319	ses-1	744
sub-14	2	362	crossed	different	same	50	left	lower	right	lower	1	926	ses-1	745
sub-14	2	363	crossed	different	different	50	left	upper	right	lower	1	788	ses-1	746
sub-14	2	364	crossed	different	different	50	left	upper	right	lower	1	653	ses-1	747
sub-14	2	365	crossed	different	different	50	right	upper	left	lower	1	2543	ses-1	748
sub-14	2	366	crossed	same	same	50	left	lower	left	lower	1	926	ses-1	749
sub-14	2	367	crossed	different	same	100	right	lower	left	lower	1	840	ses-1	750
sub-14	2	368	crossed	different	same	50	left	lower	right	lower	1	956	ses-1	751
sub-14	2	369	crossed	same	different	800	right	lower	right	upper	1	1152	ses-1	752
sub-14	2	370	crossed	same	same	300	right	lower	right	lower	1	953	ses-1	753
sub-14	2	371	crossed	same	different	800	right	lower	right	upper	1	773	ses-1	754
sub-14	2	372	crossed	same	different	300	right	lower	right	upper	1	1113	ses-1	755
sub-14	2	373	crossed	same	different	100	left	upper	left	lower	1	1263	ses-1	756
sub-14	2	374	crossed	different	same	100	right	lower	left	lower	1	898	ses-1	757
sub-14	2	375	crossed	same	same	100	right	lower	right	lower	1	805	ses-1	758
sub-14	2	376	crossed	same	same	50	right	lower	right	lower	1	824	ses-1	759
sub-14	2	377	crossed	different	same	50	left	lower	right	lower	1	873	ses-1	760
sub-14	2	378	crossed	same	different	800	right	upper	right	lower	1	895	ses-1	761
sub-14	2	379	crossed	same	different	300	right	upper	right	lower	1	808	ses-1	762
sub-14	2	380	crossed	different	different	100	right	lower	left	upper	1	797	ses-1	763
sub-14	2	381	crossed	same	same	100	right	lower	right	lower	1	1381	ses-1	764
sub-14	2	382	crossed	same	different	800	left	upper	left	lower	1	982	ses-1	765
sub-14	2	383	crossed	different	same	300	left	lower	right	lower	1	950	ses-1	766
sub-14	2	384	crossed	different	same	100	right	lower	left	lower	1	858	ses-1	767
sub-14	2	385	crossed	different	different	800	right	upper	left	lower	1	1013	ses-1	768
sub-14	1	1	uncrossed	different	different	100	left	lower	right	upper	1	1324	ses-1	769
sub-14	1	2	uncrossed	same	different	100	left	upper	left	lower	1	804	ses-1	770
sub-14	1	3	uncrossed	different	same	800	left	lower	right	lower	0	127	ses-1	771
sub-14	1	4	uncrossed	different	same	300	right	lower	left	lower	1	825	ses-1	772
sub-14	1	5	uncrossed	different	different	800	left	lower	right	upper	1	968	ses-1	773
sub-14	1	6	uncrossed	same	same	50	right	lower	right	lower	1	1235	ses-1	774
sub-14	1	7	uncrossed	different	same	300	right	lower	left	lower	1	801	ses-1	775
sub-14	1	8	uncrossed	different	different	300	left	upper	right	lower	1	864	ses-1	776
sub-14	1	9	uncrossed	same	different	800	left	upper	left	lower	1	1084	ses-1	777
sub-14	1	10	uncrossed	same	same	50	left	lower	left	lower	1	1650	ses-1	778
sub-14	1	11	uncrossed	same	different	300	left	lower	left	upper	1	1728	ses-1	779
sub-14	1	12	uncrossed	different	different	300	right	upper	left	lower	1	893	ses-1	780
sub-14	1	13	uncrossed	different	different	100	right	lower	left	upper	0	1734	ses-1	781
sub-14	1	14	uncrossed	different	different	50	right	upper	left	lower	1	1423	ses-1	782
sub-14	1	15	uncrossed	same	same	300	left	lower	left	lower	1	1267	ses-1	783
sub-14	1	16	uncrossed	different	different	300	right	lower	left	upper	1	1482	ses-1	784
sub-14	1	17	uncrossed	same	same	800	left	lower	left	lower	1	1114	ses-1	785
sub-14	1	18	uncrossed	different	different	50	left	upper	right	lower	0	2029	ses-1	786
sub-14	1	19	uncrossed	same	different	100	left	lower	left	upper	1	1248	ses-1	787
sub-14	1	20	uncrossed	same	different	300	right	upper	right	lower	1	1601	ses-1	788
sub-14	1	21	uncrossed	same	same	300	right	lower	right	lower	1	1336	ses-1	789
sub-14	1	22	uncrossed	different	different	50	right	lower	left	upper	0	1769	ses-1	790
sub-14	1	23	uncrossed	different	same	800	right	lower	left	lower	1	738	ses-1	791
sub-14	1	24	uncrossed	same	same	100	right	lower	right	lower	1	1595	ses-1	792
sub-14	1	25	uncrossed	different	different	50	left	lower	right	upper	1	663	ses-1	793
sub-14	1	26	uncrossed	different	same	50	right	lower	left	lower	1	665	ses-1	794
sub-14	1	27	uncrossed	same	different	300	right	upper	right	lower	1	1254	ses-1	795
sub-14	1	28	uncrossed	different	different	50	left	upper	right	lower	1	919	ses-1	796
sub-14	1	29	uncrossed	different	same	100	left	lower	right	lower	1	861	ses-1	797
sub-14	1	30	uncrossed	same	different	300	right	upper	right	lower	1	1130	ses-1	798
sub-14	1	31	uncrossed	same	same	800	left	lower	left	lower	1	1728	ses-1	799
sub-14	1	32	uncrossed	different	different	300	right	lower	left	upper	0	1355	ses-1	800
sub-14	1	33	uncrossed	same	same	800	left	lower	left	lower	1	1323	ses-1	801
sub-14	1	34	uncrossed	same	same	800	right	lower	right	lower	1	1264	ses-1	802
sub-14	1	35	uncrossed	same	same	100	left	lower	left	lower	1	1104	ses-1	803
sub-14	1	36	uncrossed	same	same	100	left	lower	left	lower	1	1036	ses-1	804
sub-14	1	37	uncrossed	different	different	50	left	upper	right	lower	1	1872	ses-1	805
sub-14	1	38	uncrossed	same	same	50	left	lower	left	lower	1	1188	ses-1	806
sub-14	1	39	uncrossed	different	same	50	left	lower	right	lower	1	1193	ses-1	807
sub-14	1	40	uncrossed	same	same	100	left	lower	left	lower	1	737	ses-1	808
sub-14	1	41	uncrossed	same	different	100	left	upper	left	lower	1	1226	ses-1	809
sub-14	1	42	uncrossed	same	same	300	left	lower	left	lower	1	997	ses-1	810
sub-14	1	43	uncrossed	same	different	300	right	lower	right	upper	1	1102	ses-1	811
sub-14	1	44	uncrossed	same	different	100	left	upper	left	lower	1	1042	ses-1	812
sub-14	1	45	uncrossed	same	different	100	right	upper	right	lower	1	1039	ses-1	813
sub-14	1	46	uncrossed	same	different	300	right	lower	right	upper	1	1321	ses-1	814
sub-14	1	47	uncrossed	different	different	50	right	lower	left	upper	0	1186	ses-1	815
sub-14	1	48	uncrossed	different	same	300	left	lower	right	lower	1	888	ses-1	816
sub-14	1	49	uncrossed	different	different	50	right	upper	left	lower	1	1521	ses-1	817
sub-14	1	50	uncrossed	same	same	800	left	lower	left	lower	1	654	ses-1	818
sub-14	1	51	uncrossed	same	different	300	right	upper	right	lower	1	1153	ses-1	819
sub-14	1	52	uncrossed	different	same	300	left	lower	right	lower	1	808	ses-1	820
sub-14	1	53	uncrossed	different	different	50	left	lower	right	upper	1	966	ses-1	821
sub-14	1	54	uncrossed	same	different	800	left	upper	left	lower	1	1047	ses-1	822
sub-14	1	55	uncrossed	same	same	800	left	lower	left	lower	1	1118	ses-1	823
sub-14	1	56	uncrossed	different	same	100	right	lower	left	lower	1	882	ses-1	824
sub-14	1	57	uncrossed	different	different	800	left	upper	right	lower	1	887	ses-1	825
sub-14	1	58	uncrossed	same	different	100	left	lower	left	upper	1	1125	ses-1	826
sub-14	1	59	uncrossed	different	different	50	right	upper	left	lower	1	1039	ses-1	827
sub-14	1	60	uncrossed	different	different	50	right	upper	left	lower	1	1053	ses-1	828
sub-14	1	61	uncrossed	different	different	800	right	lower	left	upper	1	903	ses-1	829
sub-14	1	62	uncrossed	different	same	300	right	lower	left	lower	1	881	ses-1	830
sub-14	1	63	uncrossed	different	same	50	right	lower	left	lower	1	798	ses-1	831
sub-14	1	64	uncrossed	same	different	300	left	lower	left	upper	1	1390	ses-1	832
sub-14	1	65	uncrossed	same	different	100	right	lower	right	upper	1	1360	ses-1	833
sub-14	1	66	uncrossed	same	same	800	right	lower	right	lower	1	1103	ses-1	834
sub-14	1	67	uncrossed	same	same	800	right	lower	right	lower	1	1441	ses-1	835
sub-14	1	68	uncrossed	same	different	100	right	lower	right	upper	1	1370	ses-1	836
sub-14	1	69	uncrossed	different	same	300	right	lower	left	lower	1	858	ses-1	837
sub-14	1	70	uncrossed	same	different	800	left	upper	left	lower	1	1109	ses-1	838
sub-14	1	71	uncrossed	same	different	300	right	lower	right	upper	1	1122	ses-1	839
sub-14	1	72	uncrossed	different	same	50	left	lower	right	lower	1	805	ses-1	840
sub-14	1	73	uncrossed	different	same	800	left	lower	right	lower	1	823	ses-1	841
sub-14	1	74	uncrossed	same	same	800	left	lower	left	lower	1	1305	ses-1	842
sub-14	1	75	uncrossed	same	different	50	left	upper	left	lower	1	1505	ses-1	843
sub-14	1	76	uncrossed	different	different	300	left	upper	right	lower	1	766	ses-1	844
sub-14	1	77	uncrossed	different	different	100	right	lower	left	upper	0	1438	ses-1	845
sub-14	1	78	uncrossed	different	same	300	right	lower	left	lower	1	732	ses-1	846
sub-14	1	79	uncrossed	same	same	300	right	lower	right	lower	1	1018	ses-1	847
sub-14	1	80	uncrossed	same	different	50	right	upper	right	lower	1	1179	ses-1	848
sub-14	1	81	uncrossed	different	same	800	right	lower	left	lower	1	729	ses-1	849
sub-14	1	82	uncrossed	different	same	100	right	lower	left	lower	1	732	ses-1	850
sub-14	1	83	uncrossed	different	different	800	right	upper	left	lower	1	675	ses-1	851
sub-14	1	84	uncrossed	same	same	50	right	lower	right	lower	1	1259	ses-1	852
sub-14	1	85	uncrossed	same	different	100	left	upper	left	lower	1	1091	ses-1	853
sub-14	1	86	uncrossed	different	same	800	right	lower	left	lower	1	879	ses-1	854
sub-14	1	87	uncrossed	different	different	300	left	lower	right	upper	1	830	ses-1	855
sub-14	1	88	uncrossed	same	same	50	right	lower	right	lower	1	1495	ses-1	856
sub-14	1	89	uncrossed	same	different	50	right	lower	right	upper	1	1500	ses-1	857
sub-14	1	90	uncrossed	different	same	800	right	lower	left	lower	1	774	ses-1	858
sub-14	1	91	uncrossed	different	same	50	left	lower	right	lower	1	812	ses-1	859
sub-14	1	92	uncrossed	different	different	300	left	upper	right	lower	1	1251	ses-1	860
sub-14	1	93	uncrossed	different	different	800	left	upper	right	lower	0	1501	ses-1	861
sub-14	1	94	uncrossed	same	same	800	left	lower	left	lower	1	1402	ses-1	862
sub-14	1	95	uncrossed	different	different	50	left	lower	right	upper	1	1198	ses-1	863
sub-14	1	96	uncrossed	same	different	100	left	lower	left	upper	1	1407	ses-1	864
sub-14	1	97	uncrossed	different	same	50	right	lower	left	lower	1	1582	ses-1	865
sub-14	1	98	uncrossed	same	same	300	left	lower	left	lower	1	992	ses-1	866
sub-14	1	99	uncrossed	same	same	300	left	lower	left	lower	1	856	ses-1	867
sub-14	1	100	uncrossed	different	different	50	right	lower	left	upper	1	828	ses-1	868
sub-14	1	101	uncrossed	different	different	300	right	upper	left	lower	1	912	ses-1	869
sub-14	1	102	uncrossed	same	same	50	left	lower	left	lower	1	1189	ses-1	870
sub-14	1	103	uncrossed	same	different	300	left	upper	left	lower	1	1285	ses-1	871
sub-14	1	104	uncrossed	different	different	100	left	lower	right	upper	0	1948	ses-1	872
sub-14	1	105	uncrossed	different	same	100	right	lower	left	lower	1	1084	ses-1	873
sub-14	1	106	uncrossed	same	same	50	right	lower	right	lower	1	1128	ses-1	874
sub-14	1	107	uncrossed	different	same	800	left	lower	right	lower	1	734	ses-1	875
sub-14	1	108	uncrossed	same	different	300	left	upper	left	lower	1	1463	ses-1	876
sub-14	1	109	uncrossed	same	same	300	right	lower	right	lower	1	1294	ses-1	877
sub-14	1	110	uncrossed	different	different	300	left	upper	right	lower	1	974	ses-1	878
sub-14	1	111	uncrossed	same	different	100	left	lower	left	upper	1	1884	ses-1	879
sub-14	1	112	uncrossed	same	different	800	right	lower	right	upper	1	1454	ses-1	880
sub-14	1	113	uncrossed	same	different	100	right	lower	right	upper	1	1468	ses-1	881
sub-14	1	114	uncrossed	same	different	800	right	lower	right	upper	1	1243	ses-1	882
sub-14	1	115	uncrossed	different	different	100	left	lower	right	upper	1	1114	ses-1	883
sub-14	1	116	uncrossed	same	different	800	right	lower	right	upper	1	858	ses-1	884
sub-14	1	117	uncrossed	different	different	300	right	upper	left	lower	1	908	ses-1	885
sub-14	1	118	uncrossed	same	same	300	left	lower	left	lower	1	1225	ses-1	886
sub-14	1	119	uncrossed	different	same	100	right	lower	left	lower	1	1096	ses-1	887
sub-14	1	120	uncrossed	different	different	50	left	upper	right	lower	0	1701	ses-1	888
sub-14	1	121	uncrossed	different	different	800	right	lower	left	upper	1	913	ses-1	889
sub-14	1	122	uncrossed	different	different	100	left	upper	right	lower	0	1652	ses-1	890
sub-14	1	123	uncrossed	different	different	800	left	lower	right	upper	1	1072	ses-1	891
sub-14	1	124	uncrossed	different	same	100	right	lower	left	lower	1	904	ses-1	892
sub-14	1	125	uncrossed	same	different	300	left	upper	left	lower	1	967	ses-1	893
sub-14	1	126	uncrossed	same	same	300	left	lower	left	lower	1	1020	ses-1	894
sub-14	1	127	uncrossed	same	same	100	left	lower	left	lower	1	945	ses-1	895
sub-14	1	128	uncrossed	same	different	300	left	lower	left	upper	1	936	ses-1	896
sub-14	1	129	uncrossed	different	same	100	right	lower	left	lower	1	695	ses-1	897
sub-14	1	130	uncrossed	different	different	300	right	upper	left	lower	1	922	ses-1	898
sub-14	1	131	uncrossed	different	different	50	left	upper	right	lower	0	1227	ses-1	899
sub-14	1	132	uncrossed	different	same	100	left	lower	right	lower	1	714	ses-1	900
sub-14	1	133	uncrossed	different	same	50	right	lower	left	lower	1	792	ses-1	901
sub-14	1	134	uncrossed	same	different	50	right	upper	right	lower	1	1066	ses-1	902
sub-14	1	135	uncrossed	same	different	100	right	upper	right	lower	1	937	ses-1	903
sub-14	1	136	uncrossed	different	different	100	right	lower	left	upper	0	1128	ses-1	904
sub-14	1	137	uncrossed	different	same	100	right	lower	left	lower	1	752	ses-1	905
sub-14	1	138	uncrossed	different	same	50	left	lower	right	lower	1	1144	ses-1	906
sub-14	1	139	uncrossed	same	same	300	right	lower	right	lower	1	922	ses-1	907
sub-14	1	140	uncrossed	different	same	300	right	lower	left	lower	1	793	ses-1	908
sub-14	1	141	uncrossed	same	different	50	right	lower	right	upper	1	1067	ses-1	909
sub-14	1	142	uncrossed	same	same	50	left	lower	left	lower	1	1151	ses-1	910
sub-14	1	143	uncrossed	same	different	800	right	upper	right	lower	1	1237	ses-1	911
sub-14	1	144	uncrossed	different	same	800	right	lower	left	lower	1	784	ses-1	912
sub-14	1	145	uncrossed	same	same	800	right	lower	right	lower	1	628	ses-1	913
sub-14	1	146	uncrossed	different	different	300	left	lower	right	upper	1	1534	ses-1	914
sub-14	1	147	uncrossed	different	same	800	left	lower	right	lower	1	1113	ses-1	915
sub-14	1	149	uncrossed	different	different	800	right	upper	left	lower	1	1461	ses-1	916
sub-14	1	150	uncrossed	same	different	300	left	upper	left	lower	1	1069	ses-1	917
sub-14	1	151	uncrossed	different	different	100	left	upper	right	lower	1	2111	ses-1	918
sub-14	1	152	uncrossed	same	different	300	right	lower	right	upper	0	1342	ses-1	919
sub-14	1	153	uncrossed	different	same	50	left	lower	right	lower	1	1436	ses-1	920
sub-14	1	154	uncrossed	same	different	50	right	lower	right	upper	0	1477	ses-1	921
sub-14	1	155	uncrossed	different	different	300	left	lower	right	upper	1	1322	ses-1	922
sub-14	1	156	uncrossed	different	same	300	left	lower	right	lower	1	907	ses-1	923
sub-14	1	157	uncrossed	same	same	100	right	lower	right	lower	1	1867	ses-1	924
sub-14	1	158	uncrossed	same	same	100	right	lower	right	lower	1	1496	ses-1	925
sub-14	1	159	uncrossed	different	same	100	left	lower	right	lower	1	809	ses-1	926
sub-14	1	160	uncrossed	same	same	100	right	lower	right	lower	1	1975	ses-1	927
sub-14	1	161	uncrossed	same	same	300	left	lower	left	lower	1	1247	ses-1	928
sub-14	1	162	uncrossed	same	same	300	left	lower	left	lower	1	913	ses-1	929
sub-14	1	163	uncrossed	different	different	50	left	lower	right	upper	1	1573	ses-1	930
sub-14	1	164	uncrossed	same	same	100	left	lower	left	lower	1	799	ses-1	931
sub-14	1	165	uncrossed	same	same	50	right	lower	right	lower	1	1521	ses-1	932
sub-14	1	166	uncrossed	different	different	100	right	upper	left	lower	1	1104	ses-1	933
sub-14	1	167	uncrossed	same	different	800	left	lower	left	upper	1	878	ses-1	934
sub-14	1	168	uncrossed	same	same	100	right	lower	right	lower	1	1090	ses-1	935
sub-14	1	169	uncrossed	different	different	300	left	lower	right	upper	1	925	ses-1	936
sub-14	1	170	uncrossed	same	same	50	left	lower	left	lower	1	966	ses-1	937
sub-14	1	171	uncrossed	different	different	800	left	upper	right	lower	1	899	ses-1	938
sub-14	1	172	uncrossed	different	same	50	right	lower	left	lower	1	1301	ses-1	939
sub-14	1	173	uncrossed	different	different	800	right	upper	left	lower	1	1411	ses-1	940
sub-14	1	174	uncrossed	different	same	300	left	lower	right	lower	1	743	ses-1	941
sub-14	1	175	uncrossed	different	same	50	left	lower	right	lower	1	853	ses-1	942
sub-14	1	176	uncrossed	different	different	300	right	upper	left	lower	1	847	ses-1	943
sub-14	1	177	uncrossed	different	same	300	right	lower	left	lower	1	871	ses-1	944
sub-14	1	178	uncrossed	different	same	100	right	lower	left	lower	1	1110	ses-1	945
sub-14	1	179	uncrossed	same	same	100	right	lower	right	lower	1	1397	ses-1	946
sub-14	1	180	uncrossed	different	different	50	left	lower	right	upper	1	1063	ses-1	947
sub-14	1	181	uncrossed	same	same	300	left	lower	left	lower	1	825	ses-1	948
sub-14	1	182	uncrossed	same	same	800	left	lower	left	lower	1	811	ses-1	949
sub-14	1	183	uncrossed	same	same	100	right	lower	right	lower	1	1153	ses-1	950
sub-14	1	184	uncrossed	same	same	100	left	lower	left	lower	1	798	ses-1	951
sub-14	1	185	uncrossed	same	different	100	left	upper	left	lower	1	1276	ses-1	952
sub-14	1	186	uncrossed	same	same	50	left	lower	left	lower	1	1141	ses-1	953
sub-14	1	187	uncrossed	same	different	300	right	lower	right	upper	1	915	ses-1	954
sub-14	1	188	uncrossed	same	different	800	right	lower	right	upper	1	948	ses-1	955
sub-14	1	189	uncrossed	different	same	50	right	lower	left	lower	1	878	ses-1	956
sub-14	1	190	uncrossed	different	same	50	right	lower	left	lower	1	695	ses-1	957
sub-14	1	191	uncrossed	different	different	300	left	upper	right	lower	1	1378	ses-1	958
sub-14	1	192	uncrossed	same	different	800	left	lower	left	upper	1	912	ses-1	959
sub-14	1	193	uncrossed	same	same	800	left	lower	left	lower	1	924	ses-1	960
sub-14	1	194	uncrossed	different	different	800	left	lower	right	upper	1	869	ses-1	961
sub-14	1	195	uncrossed	same	same	50	left	lower	left	lower	1	893	ses-1	962
sub-14	1	196	uncrossed	different	different	100	right	lower	left	upper	1	1314	ses-1	963
sub-14	1	197	uncrossed	same	same	100	left	lower	left	lower	1	709	ses-1	964
sub-14	1	198	uncrossed	same	different	300	left	upper	left	lower	1	1065	ses-1	965
sub-14	1	199	uncrossed	different	different	50	right	upper	left	lower	0	1239	ses-1	966
sub-14	1	200	uncrossed	same	same	800	right	lower	right	lower	1	1196	ses-1	967
sub-14	1	201	uncrossed	different	different	100	right	upper	left	lower	0	1209	ses-1	968
sub-14	1	202	uncrossed	same	same	100	left	lower	left	lower	1	1239	ses-1	969
sub-14	1	203	uncrossed	different	same	50	left	lower	right	lower	1	1015	ses-1	970
sub-14	1	204	uncrossed	same	same	800	right	lower	right	lower	1	1150	ses-1	971
sub-14	1	205	uncrossed	different	same	300	left	lower	right	lower	1	619	ses-1	972
sub-14	1	206	uncrossed	same	different	800	right	upper	right	lower	1	1096	ses-1	973
sub-14	1	207	uncrossed	same	different	50	right	lower	right	upper	1	1574	ses-1	974
sub-14	1	208	uncrossed	different	same	50	left	lower	right	lower	1	736	ses-1	975
sub-14	1	209	uncrossed	same	different	100	right	upper	right	lower	1	1473	ses-1	976
sub-14	1	210	uncrossed	different	different	800	left	lower	right	upper	1	960	ses-1	977
sub-14	1	211	uncrossed	same	different	300	left	lower	left	upper	1	1140	ses-1	978
sub-14	1	212	uncrossed	different	same	800	right	lower	left	lower	1	832	ses-1	979
sub-14	1	213	uncrossed	same	same	300	left	lower	left	lower	1	1284	ses-1	980
sub-14	1	214	uncrossed	different	same	100	left	lower	right	lower	1	1145	ses-1	981
sub-14	1	215	uncrossed	different	different	100	left	lower	right	upper	1	927	ses-1	982
sub-14	1	216	uncrossed	same	same	50	right	lower	right	lower	1	1573	ses-1	983
sub-14	1	217	uncrossed	different	same	800	right	lower	left	lower	1	767	ses-1	984
sub-14	1	218	uncrossed	different	same	800	left	lower	right	lower	1	752	ses-1	985
sub-14	1	219	uncrossed	same	same	100	right	lower	right	lower	1	1411	ses-1	986
sub-14	1	220	uncrossed	different	same	300	left	lower	right	lower	1	837	ses-1	987
sub-14	1	221	uncrossed	different	different	800	right	lower	left	upper	1	1068	ses-1	988
sub-14	1	222	uncrossed	different	different	50	right	lower	left	upper	1	1530	ses-1	989
sub-14	1	223	uncrossed	different	same	300	right	lower	left	lower	1	710	ses-1	990
sub-14	1	224	uncrossed	different	same	300	left	lower	right	lower	1	538	ses-1	991
sub-14	1	225	uncrossed	same	same	50	right	lower	right	lower	1	1165	ses-1	992
sub-14	1	226	uncrossed	different	same	300	right	lower	left	lower	1	842	ses-1	993
sub-14	1	227	uncrossed	different	same	300	left	lower	right	lower	1	524	ses-1	994
sub-14	1	228	uncrossed	same	different	100	right	lower	right	upper	1	2090	ses-1	995
sub-14	1	229	uncrossed	different	same	100	left	lower	right	lower	1	542	ses-1	996
sub-14	1	230	uncrossed	same	same	300	right	lower	right	lower	1	1170	ses-1	997
sub-14	1	231	uncrossed	different	same	800	left	lower	right	lower	1	569	ses-1	998
sub-14	1	233	uncrossed	different	different	300	right	upper	left	lower	1	821	ses-1	999
sub-14	1	234	uncrossed	different	same	300	right	lower	left	lower	1	651	ses-1	1000
sub-14	1	235	uncrossed	different	same	50	right	lower	left	lower	1	749	ses-1	1001
sub-14	1	236	uncrossed	different	same	50	right	lower	left	lower	1	705	ses-1	1002
sub-14	1	237	uncrossed	different	different	100	right	upper	left	lower	1	975	ses-1	1003
sub-14	1	238	uncrossed	different	different	800	left	upper	right	lower	1	796	ses-1	1004
sub-14	1	239	uncrossed	different	different	100	left	upper	right	lower	1	1747	ses-1	1005
sub-14	1	240	uncrossed	same	same	800	right	lower	right	lower	1	1126	ses-1	1006
sub-14	1	241	uncrossed	same	different	100	right	upper	right	lower	1	1404	ses-1	1007
sub-14	1	242	uncrossed	same	different	50	left	upper	left	lower	1	1287	ses-1	1008
sub-14	1	243	uncrossed	different	same	800	left	lower	right	lower	1	662	ses-1	1009
sub-14	1	244	uncrossed	same	different	800	right	lower	right	upper	1	1121	ses-1	1010
sub-14	1	245	uncrossed	same	same	100	right	lower	right	lower	1	1283	ses-1	1011
sub-14	1	246	uncrossed	same	same	800	right	lower	right	lower	1	1096	ses-1	1012
sub-14	1	247	uncrossed	same	different	800	left	lower	left	upper	1	1128	ses-1	1013
sub-14	1	248	uncrossed	same	same	300	right	lower	right	lower	1	1165	ses-1	1014
sub-14	1	249	uncrossed	same	different	50	left	lower	left	upper	1	905	ses-1	1015
sub-14	1	250	uncrossed	same	different	50	right	lower	right	upper	1	1218	ses-1	1016
sub-14	1	251	uncrossed	different	different	50	right	upper	left	lower	1	800	ses-1	1017
sub-14	1	252	uncrossed	same	same	800	right	lower	right	lower	1	884	ses-1	1018
sub-14	1	253	uncrossed	same	different	50	right	upper	right	lower	1	1472	ses-1	1019
sub-14	1	254	uncrossed	same	different	300	left	lower	left	upper	1	1145	ses-1	1020
sub-14	1	255	uncrossed	different	same	100	right	lower	left	lower	1	879	ses-1	1021
sub-14	1	256	uncrossed	different	different	100	left	upper	right	lower	0	1621	ses-1	1022
sub-14	1	257	uncrossed	different	different	100	left	upper	right	lower	1	811	ses-1	1023
sub-14	1	258	uncrossed	different	same	100	left	lower	right	lower	1	622	ses-1	1024
sub-14	1	259	uncrossed	different	same	100	left	lower	right	lower	1	707	ses-1	1025
sub-14	1	260	uncrossed	same	different	50	left	lower	left	upper	1	943	ses-1	1026
sub-14	1	261	uncrossed	different	different	50	right	lower	left	upper	1	1236	ses-1	1027
sub-14	1	262	uncrossed	different	same	100	left	lower	right	lower	1	684	ses-1	1028
sub-14	1	263	uncrossed	same	different	50	right	lower	right	upper	1	994	ses-1	1029
sub-14	1	264	uncrossed	same	different	50	right	upper	right	lower	1	1049	ses-1	1030
sub-14	1	265	uncrossed	same	same	100	left	lower	left	lower	1	917	ses-1	1031
sub-14	1	266	uncrossed	different	same	50	right	lower	left	lower	1	723	ses-1	1032
sub-14	1	267	uncrossed	same	different	100	left	upper	left	lower	1	1201	ses-1	1033
sub-14	1	268	uncrossed	same	different	300	right	upper	right	lower	1	1288	ses-1	1034
sub-14	1	269	uncrossed	same	different	50	left	upper	left	lower	1	1244	ses-1	1035
sub-14	1	270	uncrossed	same	same	800	right	lower	right	lower	1	1149	ses-1	1036
sub-14	1	271	uncrossed	different	different	800	left	upper	right	lower	1	869	ses-1	1037
sub-14	1	272	uncrossed	same	different	300	right	upper	right	lower	1	1225	ses-1	1038
sub-14	1	273	uncrossed	different	same	800	left	lower	right	lower	1	680	ses-1	1039
sub-14	1	274	uncrossed	same	same	300	left	lower	left	lower	1	1412	ses-1	1040
sub-14	1	275	uncrossed	same	different	50	right	upper	right	lower	1	1362	ses-1	1041
sub-14	1	276	uncrossed	same	different	50	left	lower	left	upper	1	1459	ses-1	1042
sub-14	1	277	uncrossed	different	same	800	left	lower	right	lower	1	1024	ses-1	1043
sub-14	1	278	uncrossed	different	different	100	left	upper	right	lower	0	2553	ses-1	1044
sub-14	1	279	uncrossed	same	different	100	right	upper	right	lower	1	1452	ses-1	1045
sub-14	1	280	uncrossed	same	same	300	right	lower	right	lower	1	1253	ses-1	1046
sub-14	1	281	uncrossed	same	different	100	right	lower	right	upper	1	1154	ses-1	1047
sub-14	1	282	uncrossed	different	same	800	left	lower	right	lower	1	829	ses-1	1048
sub-14	1	283	uncrossed	different	same	800	left	lower	right	lower	1	718	ses-1	1049
sub-14	1	284	uncrossed	different	same	800	right	lower	left	lower	1	580	ses-1	1050
sub-14	1	285	uncrossed	same	same	300	right	lower	right	lower	1	1298	ses-1	1051
sub-14	1	286	uncrossed	same	same	300	left	lower	left	lower	1	1345	ses-1	1052
sub-14	1	287	uncrossed	same	different	800	left	upper	left	lower	1	1336	ses-1	1053
sub-14	1	288	uncrossed	different	same	100	left	lower	right	lower	1	702	ses-1	1054
sub-14	1	289	uncrossed	same	same	50	right	lower	right	lower	1	1247	ses-1	1055
sub-14	1	290	uncrossed	same	same	300	right	lower	right	lower	1	1083	ses-1	1056
sub-14	1	291	uncrossed	same	same	50	right	lower	right	lower	1	1305	ses-1	1057
sub-14	1	292	uncrossed	different	different	100	right	upper	left	lower	1	885	ses-1	1058
sub-14	1	293	uncrossed	same	same	50	left	lower	left	lower	1	819	ses-1	1059
sub-14	1	294	uncrossed	same	same	50	right	lower	right	lower	1	1174	ses-1	1060
sub-14	1	295	uncrossed	different	same	100	right	lower	left	lower	1	731	ses-1	1061
sub-14	1	296	uncrossed	same	different	50	left	upper	left	lower	1	1005	ses-1	1062
sub-14	1	297	uncrossed	different	same	800	right	lower	left	lower	1	642	ses-1	1063
sub-14	1	298	uncrossed	same	different	300	left	upper	left	lower	1	1195	ses-1	1064
sub-14	1	299	uncrossed	different	different	800	right	upper	left	lower	1	830	ses-1	1065
sub-14	1	300	uncrossed	different	different	800	right	upper	left	lower	1	802	ses-1	1066
sub-14	1	301	uncrossed	same	different	800	left	upper	left	lower	0	675	ses-1	1067
sub-14	1	302	uncrossed	same	different	300	right	lower	right	upper	1	1220	ses-1	1068
sub-14	1	303	uncrossed	different	different	100	left	lower	right	upper	1	920	ses-1	1069
sub-14	1	304	uncrossed	different	different	800	right	lower	left	upper	1	955	ses-1	1070
sub-14	1	305	uncrossed	different	same	50	left	lower	right	lower	1	1105	ses-1	1071
sub-14	1	306	uncrossed	same	same	300	right	lower	right	lower	1	1110	ses-1	1072
sub-14	1	307	uncrossed	different	different	100	left	lower	right	upper	1	640	ses-1	1073
sub-14	1	308	uncrossed	different	same	800	right	lower	left	lower	1	773	ses-1	1074
sub-14	1	309	uncrossed	same	different	800	right	upper	right	lower	1	1531	ses-1	1075
sub-14	1	310	uncrossed	different	same	100	right	lower	left	lower	1	1275	ses-1	1076
sub-14	1	311	uncrossed	different	same	800	right	lower	left	lower	1	693	ses-1	1077
sub-14	1	312	uncrossed	different	different	300	left	lower	right	upper	1	616	ses-1	1078
sub-14	1	313	uncrossed	different	same	50	left	lower	right	lower	1	648	ses-1	1079
sub-14	1	314	uncrossed	same	same	800	right	lower	right	lower	1	1980	ses-1	1080
sub-14	1	315	uncrossed	different	same	100	right	lower	left	lower	1	695	ses-1	1081
sub-14	1	316	uncrossed	same	same	300	right	lower	right	lower	1	1019	ses-1	1082
sub-14	1	317	uncrossed	same	same	800	left	lower	left	lower	1	960	ses-1	1083
sub-14	1	318	uncrossed	different	same	100	left	lower	right	lower	1	558	ses-1	1084
sub-14	1	319	uncrossed	different	same	50	right	lower	left	lower	1	575	ses-1	1085
sub-14	1	320	uncrossed	same	same	50	left	lower	left	lower	1	1827	ses-1	1086
sub-14	1	321	uncrossed	different	same	50	left	lower	right	lower	1	641	ses-1	1087
sub-14	1	322	uncrossed	different	different	800	right	lower	left	upper	0	599	ses-1	1088
sub-14	1	323	uncrossed	same	different	800	right	upper	right	lower	1	1055	ses-1	1089
sub-14	1	324	uncrossed	same	different	50	left	upper	left	lower	1	1565	ses-1	1090
sub-14	1	325	uncrossed	same	same	800	left	lower	left	lower	1	974	ses-1	1091
sub-14	1	326	uncrossed	different	different	50	left	lower	right	upper	1	999	ses-1	1092
sub-14	1	327	uncrossed	same	different	50	left	lower	left	upper	1	949	ses-1	1093
sub-14	1	328	uncrossed	different	same	800	right	lower	left	lower	1	932	ses-1	1094
sub-14	1	329	uncrossed	same	same	100	left	lower	left	lower	1	1660	ses-1	1095
sub-14	1	330	uncrossed	same	same	300	right	lower	right	lower	1	1581	ses-1	1096
sub-14	1	331	uncrossed	different	different	300	left	upper	right	lower	1	1312	ses-1	1097
sub-14	1	332	uncrossed	different	different	300	right	lower	left	upper	1	776	ses-1	1098
sub-14	1	333	uncrossed	same	different	100	right	lower	right	upper	0	1341	ses-1	1099
sub-14	1	334	uncrossed	different	different	100	right	lower	left	upper	0	1638	ses-1	1100
sub-14	1	335	uncrossed	different	different	300	left	lower	right	upper	1	594	ses-1	1101
sub-14	1	336	uncrossed	same	same	100	right	lower	right	lower	1	1653	ses-1	1102
sub-14	1	337	uncrossed	same	same	50	left	lower	left	lower	1	973	ses-1	1103
sub-14	1	338	uncrossed	same	different	50	left	upper	left	lower	1	731	ses-1	1104
sub-14	1	339	uncrossed	same	same	100	right	lower	right	lower	1	1203	ses-1	1105
sub-14	1	340	uncrossed	different	same	50	right	lower	left	lower	1	640	ses-1	1106
sub-14	1	341	uncrossed	different	same	300	left	lower	right	lower	1	781	ses-1	1107
sub-14	1	342	uncrossed	different	same	300	right	lower	left	lower	1	635	ses-1	1108
sub-14	1	343	uncrossed	same	same	100	left	lower	left	lower	1	925	ses-1	1109
sub-14	1	344	uncrossed	same	different	800	left	lower	left	upper	1	747	ses-1	1110
sub-14	1	345	uncrossed	same	different	800	left	lower	left	upper	1	920	ses-1	1111
sub-14	1	346	uncrossed	different	different	300	right	lower	left	upper	1	800	ses-1	1112
sub-14	1	347	uncrossed	same	different	100	left	lower	left	upper	1	1251	ses-1	1113
sub-14	1	348	uncrossed	same	different	800	right	upper	right	lower	1	980	ses-1	1114
sub-14	1	349	uncrossed	same	different	100	left	lower	left	upper	1	1063	ses-1	1115
sub-14	1	350	uncrossed	same	different	50	right	upper	right	lower	1	1391	ses-1	1116
sub-14	1	351	uncrossed	same	different	50	left	lower	left	upper	1	1005	ses-1	1117
sub-14	1	352	uncrossed	different	different	800	left	lower	right	upper	1	728	ses-1	1118
sub-14	1	353	uncrossed	same	same	100	left	lower	left	lower	1	1574	ses-1	1119
sub-14	1	354	uncrossed	different	different	100	right	lower	left	upper	1	985	ses-1	1120
sub-14	1	355	uncrossed	same	same	100	right	lower	right	lower	1	1204	ses-1	1121
sub-14	1	356	uncrossed	different	different	50	left	upper	right	lower	0	1310	ses-1	1122
sub-14	1	357	uncrossed	different	different	300	right	lower	left	upper	1	795	ses-1	1123
sub-14	1	358	uncrossed	same	same	800	left	lower	left	lower	1	930	ses-1	1124
sub-14	1	359	uncrossed	different	different	50	right	lower	left	upper	1	1020	ses-1	1125
sub-14	1	360	uncrossed	same	same	50	left	lower	left	lower	1	983	ses-1	1126
sub-14	1	361	uncrossed	different	same	300	left	lower	right	lower	1	677	ses-1	1127
sub-14	1	362	uncrossed	different	different	100	right	upper	left	lower	1	2062	ses-1	1128
sub-14	1	363	uncrossed	same	different	100	right	upper	right	lower	1	1376	ses-1	1129
sub-14	1	364	uncrossed	different	different	800	left	lower	right	upper	1	756	ses-1	1130
sub-14	1	365	uncrossed	same	different	300	left	lower	left	upper	1	946	ses-1	1131
sub-14	1	366	uncrossed	same	same	800	right	lower	right	lower	1	1510	ses-1	1132
sub-14	1	367	uncrossed	same	different	800	left	upper	left	lower	1	1045	ses-1	1133
sub-14	1	368	uncrossed	same	different	800	right	lower	right	upper	1	1267	ses-1	1134
sub-14	1	369	uncrossed	different	same	100	left	lower	right	lower	1	872	ses-1	1135
sub-14	1	370	uncrossed	different	same	300	right	lower	left	lower	1	864	ses-1	1136
sub-14	1	371	uncrossed	different	same	800	left	lower	right	lower	1	789	ses-1	1137
sub-14	1	372	uncrossed	different	different	800	right	upper	left	lower	1	895	ses-1	1138
sub-14	1	373	uncrossed	same	different	50	left	lower	left	upper	1	1365	ses-1	1139
sub-14	1	374	uncrossed	different	different	100	right	upper	left	lower	1	1054	ses-1	1140
sub-14	1	375	uncrossed	same	different	800	right	upper	right	lower	1	1214	ses-1	1141
sub-14	1	376	uncrossed	different	same	300	left	lower	right	lower	1	951	ses-1	1142
sub-14	1	377	uncrossed	same	same	50	right	lower	right	lower	1	1848	ses-1	1143
sub-14	1	378	uncrossed	different	same	100	left	lower	right	lower	1	689	ses-1	1144
sub-14	1	379	uncrossed	different	same	50	left	lower	right	lower	1	549	ses-1	1145
sub-14	1	380	uncrossed	different	same	300	left	lower	right	lower	1	651	ses-1	1146
sub-14	1	381	uncrossed	same	same	50	left	lower	left	lower	1	1284	ses-1	1147
sub-14	1	382	uncrossed	same	same	50	right	lower	right	lower	1	1774	ses-1	1148
sub-14	1	383	uncrossed	different	different	300	right	lower	left	upper	1	1343	ses-1	1149
sub-14	1	384	uncrossed	different	different	800	left	upper	right	lower	1	897	ses-1	1150
sub-14	1	385	uncrossed	same	different	800	left	lower	left	upper	1	688	ses-1	1151
sub-14	1	386	uncrossed	different	different	800	right	lower	left	upper	1	934	ses-1	1152
sub-14	2	1	uncrossed	same	different	300	left	upper	left	lower	1	1338	ses-1	1153
sub-14	2	2	uncrossed	same	same	300	right	lower	right	lower	1	1583	ses-1	1154
sub-14	2	3	uncrossed	different	same	100	left	lower	right	lower	1	871	ses-1	1155
sub-14	2	4	uncrossed	different	different	50	right	lower	left	upper	1	855	ses-1	1156
sub-14	2	5	uncrossed	different	different	50	right	lower	left	upper	1	890	ses-1	1157
sub-14	2	6	uncrossed	same	same	300	left	lower	left	lower	1	1085	ses-1	1158
sub-14	2	7	uncrossed	same	different	300	right	upper	right	lower	1	1300	ses-1	1159
sub-14	2	8	uncrossed	different	different	800	left	lower	right	upper	1	1028	ses-1	1160
sub-14	2	9	uncrossed	same	different	800	right	upper	right	lower	1	1042	ses-1	1161
sub-14	2	10	uncrossed	different	different	800	right	lower	left	upper	1	882	ses-1	1162
sub-14	2	11	uncrossed	different	different	800	right	lower	left	upper	1	733	ses-1	1163
sub-14	2	12	uncrossed	different	same	800	left	lower	right	lower	0	1868	ses-1	1164
sub-14	2	13	uncrossed	same	different	800	right	lower	right	upper	1	1074	ses-1	1165
sub-14	2	14	uncrossed	different	same	100	right	lower	left	lower	1	954	ses-1	1166
sub-14	2	15	uncrossed	same	different	50	right	lower	right	upper	1	994	ses-1	1167
sub-14	2	16	uncrossed	same	same	800	right	lower	right	lower	1	949	ses-1	1168
sub-14	2	17	uncrossed	same	different	800	right	upper	right	lower	1	698	ses-1	1169
sub-14	2	18	uncrossed	different	same	50	right	lower	left	lower	1	618	ses-1	1170
sub-14	2	19	uncrossed	different	different	50	left	upper	right	lower	1	689	ses-1	1171
sub-14	2	20	uncrossed	same	different	300	left	upper	left	lower	1	1109	ses-1	1172
sub-14	2	21	uncrossed	different	same	300	right	lower	left	lower	1	635	ses-1	1173
sub-14	2	22	uncrossed	different	different	100	right	upper	left	lower	1	1133	ses-1	1174
sub-14	2	23	uncrossed	different	same	100	left	lower	right	lower	1	843	ses-1	1175
sub-14	2	24	uncrossed	different	same	50	left	lower	right	lower	1	1069	ses-1	1176
sub-14	2	25	uncrossed	different	different	300	left	upper	right	lower	1	712	ses-1	1177
sub-14	2	26	uncrossed	different	same	50	right	lower	left	lower	1	823	ses-1	1178
sub-14	2	27	uncrossed	same	different	800	right	lower	right	upper	1	750	ses-1	1179
sub-14	2	28	uncrossed	different	different	300	left	upper	right	lower	1	726	ses-1	1180
sub-14	2	29	uncrossed	different	same	300	right	lower	left	lower	1	684	ses-1	1181
sub-14	2	30	uncrossed	different	different	100	right	upper	left	lower	1	593	ses-1	1182
sub-14	2	31	uncrossed	same	same	100	left	lower	left	lower	1	908	ses-1	1183
sub-14	2	32	uncrossed	different	same	300	right	lower	left	lower	1	617	ses-1	1184
sub-14	2	33	uncrossed	same	different	50	left	lower	left	upper	1	1686	ses-1	1185
sub-14	2	34	uncrossed	different	different	300	left	lower	right	upper	1	1158	ses-1	1186
sub-14	2	35	uncrossed	different	different	100	left	lower	right	upper	1	1727	ses-1	1187
sub-14	2	36	uncrossed	same	different	100	right	upper	right	lower	1	1430	ses-1	1188
sub-14	2	37	uncrossed	different	different	800	left	lower	right	upper	0	470	ses-1	1189
sub-14	2	38	uncrossed	different	different	100	right	lower	left	upper	1	942	ses-1	1190
sub-14	2	39	uncrossed	same	same	100	right	lower	right	lower	1	1335	ses-1	1191
sub-14	2	40	uncrossed	same	different	100	left	upper	left	lower	1	1109	ses-1	1192
sub-14	2	41	uncrossed	different	different	50	right	lower	left	upper	1	941	ses-1	1193
sub-14	2	42	uncrossed	different	different	300	right	lower	left	upper	1	1119	ses-1	1194
sub-14	2	43	uncrossed	same	same	100	right	lower	right	lower	1	1380	ses-1	1195
sub-14	2	44	uncrossed	same	same	300	right	lower	right	lower	1	880	ses-1	1196
sub-14	2	45	uncrossed	different	different	100	right	lower	left	upper	1	627	ses-1	1197
sub-14	2	46	uncrossed	same	different	100	left	upper	left	lower	1	1280	ses-1	1198
sub-14	2	47	uncrossed	different	same	100	right	lower	left	lower	1	1440	ses-1	1199
sub-14	2	48	uncrossed	different	different	300	left	lower	right	upper	1	883	ses-1	1200
sub-14	2	49	uncrossed	same	same	300	right	lower	right	lower	1	1060	ses-1	1201
sub-14	2	50	uncrossed	different	same	100	right	lower	left	lower	1	978	ses-1	1202
sub-14	2	51	uncrossed	different	same	100	right	lower	left	lower	1	1004	ses-1	1203
sub-14	2	52	uncrossed	same	same	800	left	lower	left	lower	0	706	ses-1	1204
sub-14	2	53	uncrossed	different	same	300	left	lower	right	lower	1	743	ses-1	1205
sub-14	2	54	uncrossed	same	same	800	left	lower	left	lower	1	994	ses-1	1206
sub-14	2	55	uncrossed	same	same	100	right	lower	right	lower	1	1358	ses-1	1207
sub-14	2	56	uncrossed	different	different	300	right	lower	left	upper	1	924	ses-1	1208
sub-14	2	57	uncrossed	same	different	300	left	lower	left	upper	1	1046	ses-1	1209
sub-14	2	58	uncrossed	same	different	100	right	lower	right	upper	1	1153	ses-1	1210
sub-14	2	59	uncrossed	same	same	100	right	lower	right	lower	1	1207	ses-1	1211
sub-14	2	60	uncrossed	same	same	300	right	lower	right	lower	1	1080	ses-1	1212
sub-14	2	61	uncrossed	same	different	300	right	lower	right	upper	1	991	ses-1	1213
sub-14	2	62	uncrossed	different	different	800	left	lower	right	upper	1	1235	ses-1	1214
sub-14	2	63	uncrossed	different	different	50	left	upper	right	lower	1	1531	ses-1	1215
sub-14	2	64	uncrossed	same	different	300	left	upper	left	lower	1	888	ses-1	1216
sub-14	2	65	uncrossed	same	same	800	left	lower	left	lower	1	835	ses-1	1217
sub-14	2	66	uncrossed	different	same	800	left	lower	right	lower	1	595	ses-1	1218
sub-14	2	67	uncrossed	same	different	100	right	upper	right	lower	1	1630	ses-1	1219
sub-14	2	68	uncrossed	different	different	50	right	lower	left	upper	1	848	ses-1	1220
sub-14	2	69	uncrossed	same	same	50	right	lower	right	lower	1	1107	ses-1	1221
sub-14	2	70	uncrossed	different	same	300	left	lower	right	lower	1	752	ses-1	1222
sub-14	2	71	uncrossed	different	same	300	left	lower	right	lower	1	764	ses-1	1223
sub-14	2	72	uncrossed	same	same	300	right	lower	right	lower	1	1008	ses-1	1224
sub-14	2	73	uncrossed	different	same	50	right	lower	left	lower	1	820	ses-1	1225
sub-14	2	74	uncrossed	different	same	300	right	lower	left	lower	1	624	ses-1	1226
sub-14	2	75	uncrossed	different	different	100	left	upper	right	lower	1	871	ses-1	1227
sub-14	2	76	uncrossed	same	different	800	left	upper	left	lower	1	1058	ses-1	1228
sub-14	2	77	uncrossed	different	same	50	left	lower	right	lower	1	878	ses-1	1229
sub-14	2	78	uncrossed	different	same	100	right	lower	left	lower	1	660	ses-1	1230
sub-14	2	79	uncrossed	same	same	800	left	lower	left	lower	1	1271	ses-1	1231
sub-14	2	80	uncrossed	different	different	800	left	upper	right	lower	1	678	ses-1	1232
sub-14	2	81	uncrossed	different	same	800	left	lower	right	lower	1	747	ses-1	1233
sub-14	2	82	uncrossed	different	different	100	left	upper	right	lower	1	1231	ses-1	1234
sub-14	2	83	uncrossed	different	same	800	right	lower	left	lower	1	646	ses-1	1235
sub-14	2	84	uncrossed	different	same	100	right	lower	left	lower	1	622	ses-1	1236
sub-14	2	85	uncrossed	same	same	50	right	lower	right	lower	1	909	ses-1	1237
sub-14	2	86	uncrossed	different	same	800	right	lower	left	lower	1	809	ses-1	1238
sub-14	2	87	uncrossed	same	different	50	left	upper	left	lower	1	1394	ses-1	1239
sub-14	2	88	uncrossed	different	same	100	left	lower	right	lower	1	1379	ses-1	1240
sub-14	2	89	uncrossed	same	same	800	right	lower	right	lower	1	984	ses-1	1241
sub-14	2	90	uncrossed	same	same	50	right	lower	right	lower	1	1394	ses-1	1242
sub-14	2	91	uncrossed	same	same	800	left	lower	left	lower	1	1057	ses-1	1243
sub-14	2	92	uncrossed	same	same	50	right	lower	right	lower	1	1469	ses-1	1244
sub-14	2	93	uncrossed	different	same	50	right	lower	left	lower	1	839	ses-1	1245
sub-14	2	94	uncrossed	different	same	300	right	lower	left	lower	1	701	ses-1	1246
sub-14	2	95	uncrossed	same	same	100	left	lower	left	lower	1	1378	ses-1	1247
sub-14	2	96	uncrossed	same	different	800	right	upper	right	lower	1	1193	ses-1	1248
sub-14	2	97	uncrossed	same	different	800	left	lower	left	upper	1	1189	ses-1	1249
