participant_id	run	trial_in_run	posture	stim_side	stim_segment	soa	tactor1side	tactor1segment	tactor2side	tactor2segment	response_correct	rt	session	trial
sub-27	1	2	crossed	same	different	100	right	lower	right	upper	1	1410	ses-1	1
sub-27	1	3	crossed	same	same	800	left	lower	left	lower	1	996	ses-1	2
sub-27	1	4	crossed	same	same	50	left	lower	left	lower	1	1009	ses-1	3
sub-27	1	5	crossed	different	same	800	left	lower	right	lower	1	736	ses-1	4
sub-27	1	7	crossed	same	same	800	left	lower	left	lower	0	853	ses-1	5
sub-27	1	8	crossed	same	different	800	left	lower	left	upper	1	997	ses-1	6
sub-27	1	9	crossed	same	different	300	left	upper	left	lower	0	1252	ses-1	7
sub-27	1	10	crossed	different	same	50	right	lower	left	lower	0	2088	ses-1	8
sub-27	1	12	crossed	same	different	50	left	upper	left	lower	1	1359	ses-1	9
sub-27	1	13	crossed	same	different	300	right	upper	right	lower	0	1315	ses-1	10
sub-27	1	14	crossed	same	same	50	right	lower	right	lower	1	1459	ses-1	11
sub-27	1	15	crossed	different	same	100	right	lower	left	lower	0	1101	ses-1	12
sub-27	1	16	crossed	different	different	800	right	lower	left	upper	1	95	ses-1	13
sub-27	1	17	crossed	different	same	800	right	lower	left	lower	0	742	ses-1	14
sub-27	1	18	crossed	different	same	800	right	lower	left	lower	0	594	ses-1	15
sub-27	1	19	crossed	different	different	50	left	upper	right	lower	0	772	ses-1	16
sub-27	1	20	crossed	same	different	100	left	lower	left	upper	1	1381	ses-1	17
sub-27	1	21	crossed	different	same	300	left	lower	right	lower	0	559	ses-1	18
sub-27	1	22	crossed	different	same	100	left	lower	right	lower	0	582	ses-1	19
sub-27	1	23	crossed	same	different	800	left	lower	left	upper	1	21	ses-1	20
sub-27	1	24	crossed	different	same	50	right	lower	left	lower	1	898	ses-1	21
sub-27	1	25	crossed	different	same	300	left	lower	right	lower	0	746	ses-1	22
sub-27	1	26	crossed	same	same	300	right	lower	right	lower	1	699	ses-1	23
sub-27	1	27	crossed	different	different	800	left	upper	right	lower	0	466	ses-1	24
sub-27	1	28	crossed	different	different	300	left	upper	right	lower	0	804	ses-1	25
sub-27	1	29	crossed	different	same	100	right	lower	left	lower	0	1209	ses-1	26
sub-27	1	31	crossed	different	different	100	left	upper	right	lower	0	669	ses-1	27
sub-27	1	32	crossed	same	same	100	right	lower	right	lower	0	787	ses-1	28
sub-27	1	33	crossed	same	same	300	right	lower	right	lower	1	693	ses-1	29
sub-27	1	34	crossed	same	different	100	right	upper	right	lower	1	795	ses-1	30
sub-27	1	35	crossed	different	different	50	right	lower	left	upper	0	741	ses-1	31
sub-27	1	36	crossed	same	same	50	right	lower	right	lower	1	608	ses-1	32
sub-27	1	37	crossed	different	same	50	left	lower	right	lower	0	781	ses-1	33
sub-27	1	38	crossed	same	different	300	right	lower	right	upper	1	490	ses-1	34
sub-27	1	41	crossed	different	same	800	right	lower	left	lower	1	583	ses-1	35
sub-27	1	42	crossed	same	same	50	right	lower	right	lower	1	884	ses-1	36
sub-27	1	43	crossed	same	different	800	right	lower	right	upper	1	436	ses-1	37
sub-27	1	44	crossed	same	different	800	left	lower	left	upper	1	558	ses-1	38
sub-27	1	45	crossed	different	same	300	left	lower	right	lower	1	265	ses-1	39
sub-27	1	46	crossed	different	same	50	left	lower	right	lower	0	754	ses-1	40
sub-27	1	47	crossed	different	different	300	left	upper	right	lower	1	449	ses-1	41
sub-27	1	48	crossed	same	same	300	right	lower	right	lower	1	397	ses-1	42
sub-27	1	49	crossed	different	different	50	left	lower	right	upper	0	429	ses-1	43
sub-27	1	50	crossed	same	different	50	left	lower	left	upper	1	330	ses-1	44
sub-27	1	51	crossed	same	same	50	left	lower	left	lower	0	772	ses-1	45
sub-27	1	52	crossed	same	same	100	right	lower	right	lower	0	233	ses-1	46
sub-27	1	54	crossed	different	different	100	left	lower	right	upper	1	582	ses-1	47
sub-27	1	55	crossed	different	different	300	left	lower	right	upper	1	153	ses-1	48
sub-27	1	56	crossed	different	different	50	right	upper	left	lower	1	550	ses-1	49
sub-27	1	57	crossed	same	different	300	right	upper	right	lower	0	620	ses-1	50
sub-27	1	58	crossed	different	same	50	right	lower	left	lower	1	625	ses-1	51
sub-27	1	59	crossed	same	same	800	right	lower	right	lower	0	197	ses-1	52
sub-27	1	60	crossed	same	different	300	left	lower	left	upper	0	421	ses-1	53
sub-27	1	61	crossed	different	different	100	right	lower	left	upper	1	350	ses-1	54
sub-27	1	62	crossed	same	same	50	left	lower	left	lower	0	906	ses-1	55
sub-27	1	63	crossed	same	same	100	right	lower	right	lower	0	928	ses-1	56
sub-27	1	64	crossed	same	same	800	right	lower	right	lower	0	151	ses-1	57
sub-27	1	66	crossed	different	same	800	right	lower	left	lower	1	566	ses-1	58
sub-27	1	67	crossed	same	same	800	left	lower	left	lower	1	116	ses-1	59
sub-27	1	68	crossed	same	different	800	left	upper	left	lower	0	742	ses-1	60
sub-27	1	69	crossed	different	different	100	left	lower	right	upper	0	884	ses-1	61
sub-27	1	70	crossed	different	same	800	left	lower	right	lower	0	770	ses-1	62
sub-27	1	71	crossed	different	same	100	right	lower	left	lower	0	1034	ses-1	63
sub-27	1	72	crossed	same	different	300	left	lower	left	upper	1	527	ses-1	64
sub-27	1	73	crossed	same	different	100	left	upper	left	lower	1	1077	ses-1	65
sub-27	1	74	crossed	different	different	50	left	lower	right	upper	0	845	ses-1	66
sub-27	1	75	crossed	same	same	100	left	lower	left	lower	1	1171	ses-1	67
sub-27	1	76	crossed	same	different	800	right	lower	right	upper	1	452	ses-1	68
sub-27	1	77	crossed	same	different	50	left	upper	left	lower	1	1241	ses-1	69
sub-27	1	78	crossed	same	different	300	left	upper	left	lower	1	523	ses-1	70
sub-27	1	80	crossed	same	same	300	left	lower	left	lower	0	742	ses-1	71
sub-27	1	81	crossed	same	different	800	left	upper	left	lower	0	344	ses-1	72
sub-27	1	82	crossed	different	different	800	right	upper	left	lower	1	630	ses-1	73
sub-27	1	83	crossed	same	same	800	left	lower	left	lower	1	268	ses-1	74
sub-27	1	84	crossed	same	same	100	left	lower	left	lower	1	669	ses-1	75
sub-27	1	85	crossed	same	different	300	left	upper	left	lower	1	652	ses-1	76
sub-27	1	86	crossed	same	different	100	right	upper	right	lower	1	611	ses-1	77
sub-27	1	87	crossed	different	different	300	right	upper	left	lower	0	108	ses-1	78
sub-27	1	88	crossed	same	same	100	left	lower	left	lower	1	921	ses-1	79
sub-27	1	89	crossed	same	same	100	right	lower	right	lower	1	571	ses-1	80
sub-27	1	90	crossed	different	same	300	right	lower	left	lower	0	14	ses-1	81
sub-27	1	91	crossed	same	different	100	right	upper	right	lower	1	143	ses-1	82
sub-27	1	93	crossed	same	same	300	right	lower	right	lower	1	93	ses-1	83
sub-27	1	94	crossed	different	same	50	right	lower	left	lower	0	712	ses-1	84
sub-27	1	95	crossed	different	different	100	right	lower	left	upper	0	467	ses-1	85
sub-27	1	96	crossed	same	different	100	right	upper	right	lower	1	519	ses-1	86
sub-27	1	97	crossed	different	different	800	right	upper	left	lower	0	1173	ses-1	87
sub-27	1	98	crossed	same	different	800	right	upper	right	lower	1	890	ses-1	88
sub-27	1	99	crossed	different	different	100	left	lower	right	upper	0	624	ses-1	89
sub-27	1	101	crossed	same	different	100	right	lower	right	upper	1	641	ses-1	90
sub-27	1	102	crossed	same	same	800	right	lower	right	lower	1	595	ses-1	91
sub-27	1	103	crossed	same	same	100	right	lower	right	lower	1	686	ses-1	92
sub-27	1	104	crossed	different	same	100	left	lower	right	lower	0	247	ses-1	93
sub-27	1	105	crossed	different	different	800	left	lower	right	upper	0	672	ses-1	94
sub-27	1	106	crossed	same	same	50	right	lower	right	lower	1	1421	ses-1	95
sub-27	1	108	crossed	different	different	50	right	upper	left	lower	0	437	ses-1	96
sub-27	1	109	crossed	same	different	50	right	upper	right	lower	1	772	ses-1	97
sub-27	1	111	crossed	same	different	300	left	lower	left	upper	0	876	ses-1	98
sub-27	1	113	crossed	same	same	300	right	lower	right	lower	1	779	ses-1	99
sub-27	1	114	crossed	same	same	800	left	lower	left	lower	1	573	ses-1	100
sub-27	1	115	crossed	same	different	100	right	upper	right	lower	1	725	ses-1	101
sub-27	1	116	crossed	different	different	300	right	upper	left	lower	0	126	ses-1	102
sub-27	1	117	crossed	different	different	300	right	lower	left	upper	0	218	ses-1	103
sub-27	1	118	crossed	different	same	300	right	lower	left	lower	0	208	ses-1	104
sub-27	1	119	crossed	different	same	800	right	lower	left	lower	0	688	ses-1	105
sub-27	1	120	crossed	same	same	300	left	lower	left	lower	1	906	ses-1	106
sub-27	1	121	crossed	different	different	100	right	lower	left	upper	0	1857	ses-1	107
sub-27	1	122	crossed	same	same	300	right	lower	right	lower	1	530	ses-1	108
sub-27	1	123	crossed	different	different	800	right	lower	left	upper	1	76	ses-1	109
sub-27	1	124	crossed	same	same	50	right	lower	right	lower	0	1099	ses-1	110
sub-27	1	125	crossed	same	same	800	right	lower	right	lower	1	504	ses-1	111
sub-27	1	126	crossed	different	same	300	right	lower	left	lower	0	591	ses-1	112
sub-27	1	127	crossed	different	different	800	right	upper	left	lower	0	252	ses-1	113
sub-27	1	128	crossed	different	different	50	left	upper	right	lower	0	612	ses-1	114
sub-27	1	129	crossed	same	same	50	left	lower	left	lower	1	786	ses-1	115
sub-27	1	130	crossed	same	different	300	right	lower	right	upper	1	416	ses-1	116
sub-27	1	132	crossed	different	different	100	left	lower	right	upper	0	619	ses-1	117
sub-27	1	133	crossed	same	same	300	left	lower	left	lower	0	482	ses-1	118
sub-27	1	134	crossed	same	same	100	left	lower	left	lower	0	336	ses-1	119
sub-27	1	135	crossed	different	same	100	left	lower	right	lower	0	638	ses-1	120
sub-27	1	136	crossed	same	different	100	left	lower	left	upper	1	398	ses-1	121
sub-27	1	138	crossed	same	same	800	left	lower	left	lower	1	465	ses-1	122
sub-27	1	139	crossed	different	same	800	left	lower	right	lower	0	197	ses-1	123
sub-27	1	140	crossed	different	same	800	right	lower	left	lower	1	581	ses-1	124
sub-27	1	141	crossed	same	same	300	right	lower	right	lower	1	401	ses-1	125
sub-27	1	142	crossed	same	different	50	left	upper	left	lower	1	1006	ses-1	126
sub-27	1	143	crossed	different	different	300	left	lower	right	upper	1	811	ses-1	127
sub-27	1	144	crossed	same	same	800	left	lower	left	lower	1	235	ses-1	128
sub-27	1	145	crossed	different	different	50	right	lower	left	upper	0	532	ses-1	129
sub-27	1	147	crossed	same	different	100	right	lower	right	upper	1	58	ses-1	130
sub-27	1	148	crossed	different	different	300	right	lower	left	upper	0	694	ses-1	131
sub-27	1	150	crossed	different	same	100	right	lower	left	lower	0	712	ses-1	132
sub-27	1	151	crossed	different	different	100	right	upper	left	lower	0	574	ses-1	133
sub-27	1	153	crossed	same	different	100	left	upper	left	lower	1	873	ses-1	134
sub-27	1	154	crossed	same	different	100	right	upper	right	lower	1	1148	ses-1	135
sub-27	1	155	crossed	different	same	800	right	lower	left	lower	0	703	ses-1	136
sub-27	1	156	crossed	same	same	100	left	lower	left	lower	1	477	ses-1	137
sub-27	1	157	crossed	same	same	50	right	lower	right	lower	1	281	ses-1	138
sub-27	1	158	crossed	same	different	50	left	upper	left	lower	1	570	ses-1	139
sub-27	1	159	crossed	same	different	50	left	upper	left	lower	1	616	ses-1	140
sub-27	1	160	crossed	different	same	100	right	lower	left	lower	0	860	ses-1	141
sub-27	1	161	crossed	different	same	100	right	lower	left	lower	0	630	ses-1	142
sub-27	1	162	crossed	different	different	50	left	upper	right	lower	0	117	ses-1	143
sub-27	1	164	crossed	same	different	300	left	upper	left	lower	1	512	ses-1	144
sub-27	1	165	crossed	same	different	50	left	upper	left	lower	1	1017	ses-1	145
sub-27	1	166	crossed	different	different	100	left	upper	right	lower	0	721	ses-1	146
sub-27	1	167	crossed	different	different	100	right	lower	left	upper	0	536	ses-1	147
sub-27	1	168	crossed	different	same	50	right	lower	left	lower	0	320	ses-1	148
sub-27	1	169	crossed	different	different	800	right	upper	left	lower	0	93	ses-1	149
sub-27	1	170	crossed	different	different	300	left	upper	right	lower	1	364	ses-1	150
sub-27	1	171	crossed	different	different	100	right	upper	left	lower	0	405	ses-1	151
sub-27	1	172	crossed	different	same	50	left	lower	right	lower	1	641	ses-1	152
sub-27	1	173	crossed	different	different	800	left	upper	right	lower	1	670	ses-1	153
sub-27	1	174	crossed	different	same	50	right	lower	left	lower	1	770	ses-1	154
sub-27	1	175	crossed	same	different	800	right	upper	right	lower	1	848	ses-1	155
sub-27	1	176	crossed	different	same	100	right	lower	left	lower	1	803	ses-1	156
sub-27	1	177	crossed	different	different	800	left	lower	right	upper	1	578	ses-1	157
sub-27	1	178	crossed	different	same	100	left	lower	right	lower	0	1100	ses-1	158
sub-27	1	179	crossed	different	different	100	right	lower	left	upper	1	925	ses-1	159
sub-27	1	180	crossed	different	same	50	left	lower	right	lower	0	504	ses-1	160
sub-27	1	181	crossed	same	same	300	right	lower	right	lower	1	572	ses-1	161
sub-27	1	182	crossed	different	different	800	left	upper	right	lower	1	369	ses-1	162
sub-27	1	183	crossed	different	different	800	left	upper	right	lower	1	482	ses-1	163
sub-27	1	184	crossed	different	different	100	left	lower	right	upper	1	343	ses-1	164
sub-27	1	185	crossed	different	same	800	left	lower	right	lower	1	431	ses-1	165
sub-27	1	186	crossed	different	different	300	right	upper	left	lower	1	465	ses-1	166
sub-27	1	188	crossed	same	different	50	left	lower	left	upper	1	1761	ses-1	167
sub-27	1	189	crossed	different	same	300	left	lower	right	lower	0	1241	ses-1	168
sub-27	1	190	crossed	different	same	50	left	lower	right	lower	1	668	ses-1	169
sub-27	1	191	crossed	same	different	800	right	lower	right	upper	1	902	ses-1	170
sub-27	1	192	crossed	same	same	800	left	lower	left	lower	1	849	ses-1	171
sub-27	1	194	crossed	different	different	50	left	lower	right	upper	1	775	ses-1	172
sub-27	1	195	crossed	different	different	100	left	upper	right	lower	1	541	ses-1	173
sub-27	1	196	crossed	different	different	300	right	lower	left	upper	1	374	ses-1	174
sub-27	1	197	crossed	different	same	300	right	lower	left	lower	1	816	ses-1	175
sub-27	1	198	crossed	same	same	300	right	lower	right	lower	1	1090	ses-1	176
sub-27	1	199	crossed	different	different	50	left	lower	right	upper	1	471	ses-1	177
sub-27	1	200	crossed	same	different	300	right	lower	right	upper	0	640	ses-1	178
sub-27	1	201	crossed	same	different	300	right	lower	right	upper	0	504	ses-1	179
sub-27	1	202	crossed	different	different	50	right	lower	left	upper	0	560	ses-1	180
sub-27	1	203	crossed	same	different	100	left	lower	left	upper	0	354	ses-1	181
sub-27	1	204	crossed	same	different	100	left	lower	left	upper	0	404	ses-1	182
sub-27	1	205	crossed	different	same	100	left	lower	right	lower	1	977	ses-1	183
sub-27	1	206	crossed	different	different	300	right	upper	left	lower	1	679	ses-1	184
sub-27	1	207	crossed	same	same	50	left	lower	left	lower	1	1468	ses-1	185
sub-27	1	208	crossed	different	same	300	right	lower	left	lower	1	851	ses-1	186
sub-27	1	209	crossed	different	same	50	right	lower	left	lower	0	721	ses-1	187
sub-27	1	210	crossed	same	same	50	left	lower	left	lower	0	737	ses-1	188
sub-27	1	211	crossed	different	same	300	left	lower	right	lower	1	817	ses-1	189
sub-27	1	212	crossed	same	different	800	left	upper	left	lower	0	1001	ses-1	190
sub-27	1	213	crossed	different	different	50	right	upper	left	lower	1	1181	ses-1	191
sub-27	1	214	crossed	same	different	100	left	upper	left	lower	0	764	ses-1	192
sub-27	1	215	crossed	different	different	100	left	upper	right	lower	1	1631	ses-1	193
sub-27	1	216	crossed	different	same	800	left	lower	right	lower	1	10	ses-1	194
sub-27	1	217	crossed	different	same	100	right	lower	left	lower	1	586	ses-1	195
sub-27	1	218	crossed	different	same	100	left	lower	right	lower	1	747	ses-1	196
sub-27	1	219	crossed	different	different	300	left	lower	right	upper	1	570	ses-1	197
sub-27	1	220	crossed	different	same	300	right	lower	left	lower	1	330	ses-1	198
sub-27	1	221	crossed	same	different	100	left	lower	left	upper	0	767	ses-1	199
sub-27	1	222	crossed	different	same	800	left	lower	right	lower	1	942	ses-1	200
sub-27	1	223	crossed	same	different	50	right	lower	right	upper	1	854	ses-1	201
sub-27	1	224	crossed	same	same	800	right	lower	right	lower	1	675	ses-1	202
sub-27	1	225	crossed	different	different	100	right	upper	left	lower	0	1217	ses-1	203
sub-27	1	226	crossed	same	same	300	left	lower	left	lower	0	567	ses-1	204
sub-27	1	227	crossed	same	different	50	left	lower	left	upper	1	1466	ses-1	205
sub-27	1	228	crossed	different	same	100	left	lower	right	lower	1	753	ses-1	206
sub-27	1	229	crossed	different	same	800	right	lower	left	lower	0	813	ses-1	207
sub-27	1	230	crossed	different	same	100	right	lower	left	lower	0	790	ses-1	208
sub-27	1	231	crossed	same	same	50	left	lower	left	lower	1	1017	ses-1	209
sub-27	1	232	crossed	same	same	100	right	lower	right	lower	0	930	ses-1	210
sub-27	1	233	crossed	same	different	50	right	upper	right	lower	1	976	ses-1	211
sub-27	1	234	crossed	same	different	800	left	lower	left	upper	1	1008	ses-1	212
sub-27	1	235	crossed	same	different	800	right	upper	right	lower	1	748	ses-1	213
sub-27	1	236	crossed	same	different	50	right	lower	right	upper	1	1802	ses-1	214
sub-27	1	237	crossed	same	different	100	right	lower	right	upper	1	1543	ses-1	215
sub-27	1	238	crossed	same	same	300	left	lower	left	lower	0	524	ses-1	216
sub-27	1	239	crossed	same	different	100	left	upper	left	lower	1	933	ses-1	217
sub-27	1	240	crossed	same	different	300	left	lower	left	upper	1	923	ses-1	218
sub-27	1	241	crossed	same	different	50	left	lower	left	upper	0	512	ses-1	219
sub-27	1	242	crossed	different	different	800	right	upper	left	lower	0	465	ses-1	220
sub-27	1	243	crossed	different	same	300	right	lower	left	lower	1	417	ses-1	221
sub-27	1	245	crossed	different	same	300	left	lower	right	lower	1	768	ses-1	222
sub-27	1	246	crossed	different	different	50	left	lower	right	upper	0	1089	ses-1	223
sub-27	1	247	crossed	different	different	50	right	upper	left	lower	1	691	ses-1	224
sub-27	1	248	crossed	different	same	300	left	lower	right	lower	1	777	ses-1	225
sub-27	1	249	crossed	different	same	50	right	lower	left	lower	1	769	ses-1	226
sub-27	1	250	crossed	different	same	50	right	lower	left	lower	1	848	ses-1	227
sub-27	1	251	crossed	different	same	50	right	lower	left	lower	1	641	ses-1	228
sub-27	1	252	crossed	different	different	800	right	lower	left	upper	1	782	ses-1	229
sub-27	1	253	crossed	different	different	300	left	upper	right	lower	1	490	ses-1	230
sub-27	1	254	crossed	different	different	300	left	upper	right	lower	1	457	ses-1	231
sub-27	1	255	crossed	same	different	50	right	lower	right	upper	0	628	ses-1	232
sub-27	1	256	crossed	same	same	50	right	lower	right	lower	0	1316	ses-1	233
sub-27	1	257	crossed	different	different	50	right	lower	left	upper	1	658	ses-1	234
sub-27	1	258	crossed	different	same	800	left	lower	right	lower	1	724	ses-1	235
sub-27	1	259	crossed	same	different	300	right	upper	right	lower	1	888	ses-1	236
sub-27	1	260	crossed	different	different	50	right	upper	left	lower	1	853	ses-1	237
sub-27	1	261	crossed	same	different	800	right	upper	right	lower	1	828	ses-1	238
sub-27	1	262	crossed	different	same	50	right	lower	left	lower	1	705	ses-1	239
sub-27	1	263	crossed	different	same	300	left	lower	right	lower	1	451	ses-1	240
sub-27	1	264	crossed	same	different	300	left	lower	left	upper	1	732	ses-1	241
sub-27	1	265	crossed	different	same	50	left	lower	right	lower	0	794	ses-1	242
sub-27	1	266	crossed	different	same	800	right	lower	left	lower	1	649	ses-1	243
sub-27	1	267	crossed	different	same	300	left	lower	right	lower	1	571	ses-1	244
sub-27	1	268	crossed	different	same	800	right	lower	left	lower	1	541	ses-1	245
sub-27	1	269	crossed	same	different	300	right	lower	right	upper	1	661	ses-1	246
sub-27	1	270	crossed	same	same	50	right	lower	right	lower	1	1838	ses-1	247
sub-27	1	271	crossed	same	same	300	left	lower	left	lower	1	732	ses-1	248
sub-27	1	272	crossed	same	same	50	left	lower	left	lower	1	618	ses-1	249
sub-27	1	273	crossed	different	same	800	right	lower	left	lower	0	721	ses-1	250
sub-27	1	274	crossed	different	different	100	left	upper	right	lower	0	316	ses-1	251
sub-27	1	275	crossed	different	different	50	right	upper	left	lower	1	733	ses-1	252
sub-27	1	276	crossed	different	same	800	left	lower	right	lower	0	795	ses-1	253
sub-27	1	277	crossed	different	same	300	left	lower	right	lower	1	440	ses-1	254
sub-27	1	278	crossed	same	same	100	right	lower	right	lower	1	661	ses-1	255
sub-27	1	279	crossed	same	same	300	left	lower	left	lower	1	482	ses-1	256
sub-27	1	280	crossed	different	same	800	left	lower	right	lower	0	197	ses-1	257
sub-27	1	281	crossed	same	same	100	right	lower	right	lower	1	871	ses-1	258
sub-27	1	282	crossed	different	different	800	right	upper	left	lower	0	506	ses-1	259
sub-27	1	283	crossed	same	same	800	left	lower	left	lower	1	512	ses-1	260
sub-27	1	284	crossed	different	different	50	right	lower	left	upper	0	29	ses-1	261
sub-27	1	285	crossed	different	same	300	right	lower	left	lower	0	165	ses-1	262
sub-27	1	287	crossed	different	different	300	right	lower	left	upper	1	1300	ses-1	263
sub-27	1	288	crossed	different	different	300	right	lower	left	upper	1	1112	ses-1	264
sub-27	1	289	crossed	same	same	300	left	lower	left	lower	0	966	ses-1	265
sub-27	1	290	crossed	different	different	300	left	lower	right	upper	1	864	ses-1	266
sub-27	1	291	crossed	same	different	50	right	upper	right	lower	1	1194	ses-1	267
sub-27	1	292	crossed	different	different	300	right	upper	left	lower	1	625	ses-1	268
sub-27	1	293	crossed	different	same	50	right	lower	left	lower	1	861	ses-1	269
sub-27	1	294	crossed	same	same	50	left	lower	left	lower	0	712	ses-1	270
sub-27	1	295	crossed	different	same	300	left	lower	right	lower	1	881	ses-1	271
sub-27	1	296	crossed	same	same	50	right	lower	right	lower	1	993	ses-1	272
sub-27	1	297	crossed	same	same	50	right	lower	right	lower	1	947	ses-1	273
sub-27	1	298	crossed	same	same	50	left	lower	left	lower	1	823	ses-1	274
sub-27	1	299	crossed	different	different	50	right	lower	left	upper	1	915	ses-1	275
sub-27	1	301	crossed	same	different	800	right	upper	right	lower	0	916	ses-1	276
sub-27	1	302	crossed	same	same	50	right	lower	right	lower	1	1571	ses-1	277
sub-27	1	303	crossed	different	different	800	left	upper	right	lower	1	1135	ses-1	278
sub-27	1	304	crossed	same	different	100	left	upper	left	lower	1	1088	ses-1	279
sub-27	1	305	crossed	different	same	100	left	lower	right	lower	1	1076	ses-1	280
sub-27	1	307	crossed	different	different	300	right	lower	left	upper	0	998	ses-1	281
sub-27	1	308	crossed	same	same	50	right	lower	right	lower	1	1917	ses-1	282
sub-27	1	309	crossed	same	different	50	right	lower	right	upper	1	1282	ses-1	283
sub-27	1	311	crossed	same	same	800	right	lower	right	lower	0	759	ses-1	284
sub-27	1	312	crossed	different	same	50	left	lower	right	lower	0	959	ses-1	285
sub-27	1	314	crossed	different	same	100	left	lower	right	lower	1	1052	ses-1	286
sub-27	1	315	crossed	different	same	50	left	lower	right	lower	0	1331	ses-1	287
sub-27	1	316	crossed	different	different	50	left	upper	right	lower	0	1153	ses-1	288
sub-27	1	317	crossed	same	different	300	right	upper	right	lower	0	736	ses-1	289
sub-27	1	318	crossed	different	different	800	right	lower	left	upper	0	455	ses-1	290
sub-27	1	319	crossed	same	different	50	right	upper	right	lower	1	204	ses-1	291
sub-27	1	320	crossed	different	different	300	left	lower	right	upper	0	476	ses-1	292
sub-27	1	321	crossed	same	same	300	left	lower	left	lower	0	255	ses-1	293
sub-27	1	322	crossed	same	same	50	left	lower	left	lower	1	886	ses-1	294
sub-27	1	323	crossed	different	different	50	left	upper	right	lower	0	924	ses-1	295
sub-27	1	324	crossed	same	different	300	left	upper	left	lower	0	478	ses-1	296
sub-27	1	325	crossed	same	different	800	left	upper	left	lower	1	726	ses-1	297
sub-27	1	327	crossed	same	different	800	left	upper	left	lower	1	724	ses-1	298
sub-27	1	328	crossed	different	different	50	left	lower	right	upper	0	849	ses-1	299
sub-27	1	329	crossed	different	same	50	left	lower	right	lower	0	677	ses-1	300
sub-27	1	331	crossed	different	same	800	right	lower	left	lower	0	357	ses-1	301
sub-27	1	332	crossed	same	different	50	right	lower	right	upper	0	756	ses-1	302
sub-27	1	333	crossed	same	same	50	left	lower	left	lower	0	689	ses-1	303
sub-27	1	334	crossed	same	same	300	right	lower	right	lower	1	501	ses-1	304
sub-27	1	335	crossed	same	different	100	right	lower	right	upper	0	772	ses-1	305
sub-27	1	336	crossed	different	same	300	right	lower	left	lower	1	836	ses-1	306
sub-27	1	337	crossed	same	same	100	right	lower	right	lower	1	1024	ses-1	307
sub-27	1	339	crossed	same	same	100	left	lower	left	lower	1	808	ses-1	308
sub-27	1	340	crossed	different	same	100	left	lower	right	lower	1	1072	ses-1	309
sub-27	1	342	crossed	same	different	50	right	upper	right	lower	1	405	ses-1	310
sub-27	1	343	crossed	different	same	100	right	lower	left	lower	0	558	ses-1	311
sub-27	1	344	crossed	different	same	50	left	lower	right	lower	1	377	ses-1	312
sub-27	1	345	crossed	same	same	100	left	lower	left	lower	0	70	ses-1	313
sub-27	1	346	crossed	same	different	50	left	lower	left	upper	0	711	ses-1	314
sub-27	1	347	crossed	same	different	50	left	lower	left	upper	0	606	ses-1	315
sub-27	1	348	crossed	different	different	300	left	lower	right	upper	1	455	ses-1	316
sub-27	1	350	crossed	same	different	100	right	lower	right	upper	1	891	ses-1	317
sub-27	1	352	crossed	same	different	50	right	lower	right	upper	0	1102	ses-1	318
sub-27	1	353	crossed	same	same	100	left	lower	left	lower	0	956	ses-1	319
sub-27	1	356	crossed	same	same	300	right	lower	right	lower	1	836	ses-1	320
sub-27	1	357	crossed	different	same	100	right	lower	left	lower	0	710	ses-1	321
sub-27	1	358	crossed	different	same	100	right	lower	left	lower	0	1154	ses-1	322
sub-27	1	360	crossed	same	same	300	right	lower	right	lower	0	968	ses-1	323
sub-27	1	361	crossed	different	different	300	right	upper	left	lower	1	682	ses-1	324
sub-27	1	362	crossed	different	different	800	left	lower	right	upper	1	791	ses-1	325
sub-27	1	363	crossed	same	different	50	right	upper	right	lower	0	740	ses-1	326
sub-27	1	364	crossed	different	same	800	left	lower	right	lower	0	728	ses-1	327
sub-27	1	365	crossed	same	different	300	left	upper	left	lower	0	654	ses-1	328
sub-27	1	366	crossed	same	same	800	right	lower	right	lower	1	659	ses-1	329
sub-27	1	367	crossed	same	same	300	left	lower	left	lower	0	531	ses-1	330
sub-27	1	368	crossed	different	same	300	right	lower	left	lower	1	218	ses-1	331
sub-27	1	369	crossed	different	different	100	right	lower	left	upper	1	456	ses-1	332
sub-27	1	370	crossed	same	same	100	right	lower	right	lower	1	645	ses-1	333
sub-27	1	371	crossed	same	same	100	left	lower	left	lower	0	723	ses-1	334
sub-27	1	372	crossed	different	same	300	left	lower	right	lower	1	504	ses-1	335
sub-27	1	373	crossed	different	different	50	left	upper	right	lower	1	619	ses-1	336
sub-27	1	374	crossed	same	different	100	left	lower	left	upper	1	507	ses-1	337
sub-27	1	375	crossed	same	different	100	left	upper	left	lower	0	702	ses-1	338
sub-27	1	377	crossed	different	different	100	right	upper	left	lower	1	165	ses-1	339
sub-27	1	378	crossed	different	different	100	left	upper	right	lower	1	461	ses-1	340
sub-27	1	380	crossed	different	different	100	left	lower	right	upper	1	433	ses-1	341
sub-27	1	381	crossed	same	same	100	right	lower	right	lower	1	408	ses-1	342
sub-27	1	382	crossed	different	different	100	right	upper	left	lower	1	702	ses-1	343
sub-27	1	384	crossed	different	same	100	left	lower	right	lower	1	227	ses-1	344
sub-27	1	385	crossed	different	same	50	left	lower	right	lower	1	844	ses-1	345
sub-27	1	386	crossed	same	different	300	left	lower	left	upper	0	535	ses-1	346
sub-27	1	387	crossed	same	different	800	right	upper	right	lower	1	725	ses-1	347
sub-27	1	388	crossed	different	different	100	right	upper	left	lower	0	969	ses-1	348
sub-27	1	389	crossed	different	different	300	left	upper	right	lower	1	774	ses-1	349
sub-27	1	390	crossed	same	different	800	left	upper	left	lower	0	1036	ses-1	350
sub-27	1	391	crossed	different	same	100	left	lower	right	lower	1	880	ses-1	351
sub-27	1	392	crossed	different	same	50	left	lower	right	lower	1	828	ses-1	352
sub-27	1	393	crossed	same	same	800	left	lower	left	lower	0	24	ses-1	353
sub-27	1	394	crossed	same	different	800	right	lower	right	upper	1	805	ses-1	354
sub-27	1	395	crossed	same	same	800	right	lower	right	lower	1	483	ses-1	355
sub-27	1	396	crossed	same	same	100	left	lower	left	lower	0	931	ses-1	356
sub-27	1	397	crossed	same	different	800	right	lower	right	upper	0	839	ses-1	357
sub-27	1	398	crossed	different	different	800	left	lower	right	upper	1	703	ses-1	358
sub-27	1	399	crossed	same	different	300	right	lower	right	upper	1	833	ses-1	359
sub-27	1	400	crossed	same	same	800	right	lower	right	lower	0	766	ses-1	360
sub-27	1	401	crossed	different	same	800	left	lower	right	lower	0	966	ses-1	361
sub-27	1	402	crossed	same	same	100	right	lower	right	lower	1	1001	ses-1	362
sub-27	1	403	crossed	same	same	100	left	lower	left	lower	0	417	ses-1	363
sub-27	1	404	crossed	different	different	800	left	lower	right	upper	1	307	ses-1	364
sub-27	1	405	crossed	same	different	300	right	upper	right	lower	0	702	ses-1	365
sub-27	1	406	crossed	same	same	800	left	lower	left	lower	1	744	ses-1	366
sub-27	1	407	crossed	same	same	100	left	lower	left	lower	0	837	ses-1	367
sub-27	1	408	crossed	different	same	800	left	lower	right	lower	0	658	ses-1	368
sub-27	1	409	crossed	different	same	300	right	lower	left	lower	1	502	ses-1	369
sub-27	1	410	crossed	same	different	800	right	lower	right	upper	1	580	ses-1	370
sub-27	1	411	crossed	different	different	800	left	upper	right	lower	1	799	ses-1	371
sub-27	1	412	crossed	different	different	800	left	lower	right	upper	0	818	ses-1	372
sub-27	1	413	crossed	different	same	300	right	lower	left	lower	1	543	ses-1	373
sub-27	1	414	crossed	same	same	300	left	lower	left	lower	0	641	ses-1	374
sub-27	1	415	crossed	same	same	800	left	lower	left	lower	0	527	ses-1	375
sub-27	1	416	crossed	same	same	300	left	lower	left	lower	0	615	ses-1	376
sub-27	1	417	crossed	same	different	300	right	upper	right	lower	0	776	ses-1	377
sub-27	1	418	crossed	same	same	800	right	lower	right	lower	0	733	ses-1	378
sub-27	1	419	crossed	different	different	800	right	lower	left	upper	1	483	ses-1	379
sub-27	1	420	crossed	same	different	800	left	lower	left	upper	0	566	ses-1	380
sub-27	1	421	crossed	same	different	800	left	lower	left	upper	0	714	ses-1	381
sub-27	1	422	crossed	different	different	800	right	lower	left	upper	0	485	ses-1	382
sub-27	1	423	crossed	same	same	800	right	lower	right	lower	1	834	ses-1	383
sub-27	1	424	crossed	same	same	800	right	lower	right	lower	1	780	ses-1	384
sub-27	2	1	crossed	same	same	100	left	lower	left	lower	1	799	ses-1	385
sub-27	2	2	crossed	same	different	50	right	lower	right	upper	1	975	ses-1	386
sub-27	2	3	crossed	different	different	50	right	lower	left	upper	0	1191	ses-1	387
sub-27	2	4	crossed	same	different	800	right	upper	right	lower	1	954	ses-1	388
sub-27	2	5	crossed	same	same	300	left	lower	left	lower	1	883	ses-1	389
sub-27	2	6	crossed	different	different	50	right	upper	left	lower	0	863	ses-1	390
sub-27	2	7	crossed	same	different	50	left	lower	left	upper	1	986	ses-1	391
sub-27	2	8	crossed	different	same	100	left	lower	right	lower	0	792	ses-1	392
sub-27	2	9	crossed	different	same	50	left	lower	right	lower	0	715	ses-1	393
sub-27	2	10	crossed	different	different	50	left	lower	right	upper	0	872	ses-1	394
sub-27	2	11	crossed	same	same	800	left	lower	left	lower	1	705	ses-1	395
sub-27	2	12	crossed	same	different	100	left	lower	left	upper	1	841	ses-1	396
sub-27	2	13	crossed	same	different	100	left	lower	left	upper	1	1006	ses-1	397
sub-27	2	14	crossed	different	different	50	right	lower	left	upper	1	784	ses-1	398
sub-27	2	15	crossed	different	different	800	left	lower	right	upper	1	1039	ses-1	399
sub-27	2	16	crossed	same	different	300	right	lower	right	upper	1	877	ses-1	400
sub-27	2	17	crossed	same	same	300	right	lower	right	lower	1	804	ses-1	401
sub-27	2	18	crossed	same	different	300	left	lower	left	upper	0	826	ses-1	402
sub-27	2	19	crossed	different	same	800	left	lower	right	lower	0	726	ses-1	403
sub-27	2	20	crossed	different	different	100	left	lower	right	upper	0	671	ses-1	404
sub-27	2	21	crossed	different	different	800	left	lower	right	upper	0	571	ses-1	405
sub-27	2	22	crossed	different	different	100	right	lower	left	upper	0	622	ses-1	406
sub-27	2	23	crossed	same	different	50	right	upper	right	lower	1	557	ses-1	407
sub-27	2	24	crossed	same	different	50	left	upper	left	lower	1	1344	ses-1	408
sub-27	2	26	crossed	same	same	100	left	lower	left	lower	1	654	ses-1	409
sub-27	2	28	crossed	same	different	800	right	lower	right	upper	1	959	ses-1	410
sub-27	2	29	crossed	different	different	300	right	lower	left	upper	0	663	ses-1	411
sub-27	2	30	crossed	different	different	300	right	upper	left	lower	0	716	ses-1	412
sub-27	2	31	crossed	same	same	300	left	lower	left	lower	1	1065	ses-1	413
sub-27	2	32	crossed	same	same	800	left	lower	left	lower	1	477	ses-1	414
sub-27	2	33	crossed	different	different	100	right	lower	left	upper	0	596	ses-1	415
sub-27	2	34	crossed	same	different	300	right	upper	right	lower	1	448	ses-1	416
sub-27	2	35	crossed	same	same	300	right	lower	right	lower	1	376	ses-1	417
sub-27	2	36	crossed	same	different	50	left	lower	left	upper	1	987	ses-1	418
sub-27	2	37	crossed	same	different	50	left	lower	left	upper	1	593	ses-1	419
sub-27	2	39	crossed	different	same	800	left	lower	right	lower	0	687	ses-1	420
sub-27	2	40	crossed	different	different	800	left	lower	right	upper	0	472	ses-1	421
sub-27	2	41	crossed	same	same	50	right	lower	right	lower	1	1868	ses-1	422
sub-27	2	42	crossed	same	different	50	right	lower	right	upper	1	707	ses-1	423
sub-27	2	43	crossed	different	different	100	right	upper	left	lower	0	1356	ses-1	424
sub-27	2	44	crossed	different	same	100	left	lower	right	lower	1	957	ses-1	425
sub-27	2	45	crossed	different	different	50	right	upper	left	lower	0	1453	ses-1	426
sub-27	2	46	crossed	different	same	800	left	lower	right	lower	0	816	ses-1	427
sub-27	2	48	crossed	different	different	800	right	upper	left	lower	0	535	ses-1	428
sub-27	2	49	crossed	different	same	300	right	lower	left	lower	0	711	ses-1	429
sub-27	2	50	crossed	same	same	800	right	lower	right	lower	1	330	ses-1	430
sub-27	2	51	crossed	different	same	50	right	lower	left	lower	0	933	ses-1	431
sub-27	2	52	crossed	same	same	800	right	lower	right	lower	1	333	ses-1	432
sub-27	2	53	crossed	different	different	100	right	upper	left	lower	0	822	ses-1	433
sub-27	2	54	crossed	different	different	300	right	upper	left	lower	1	702	ses-1	434
sub-27	2	55	crossed	different	same	300	left	lower	right	lower	1	1053	ses-1	435
sub-27	2	56	crossed	different	same	300	right	lower	left	lower	0	875	ses-1	436
sub-27	2	57	crossed	different	different	800	left	lower	right	upper	0	751	ses-1	437
sub-27	2	58	crossed	different	different	50	right	lower	left	upper	0	587	ses-1	438
sub-27	2	59	crossed	different	same	100	left	lower	right	lower	0	831	ses-1	439
sub-27	2	60	crossed	same	different	100	right	upper	right	lower	1	668	ses-1	440
sub-27	2	61	crossed	same	same	50	left	lower	left	lower	1	965	ses-1	441
sub-27	2	62	crossed	different	same	50	right	lower	left	lower	0	989	ses-1	442
sub-27	2	63	crossed	different	same	800	right	lower	left	lower	0	697	ses-1	443
sub-27	2	64	crossed	same	same	50	right	lower	right	lower	1	883	ses-1	444
sub-27	2	65	crossed	same	same	50	right	lower	right	lower	0	757	ses-1	445
sub-27	2	66	crossed	same	different	100	left	upper	left	lower	1	737	ses-1	446
sub-27	2	67	crossed	same	different	50	right	upper	right	lower	1	1081	ses-1	447
sub-27	2	68	crossed	different	same	300	left	lower	right	lower	0	388	ses-1	448
sub-27	2	69	crossed	same	same	100	left	lower	left	lower	1	644	ses-1	449
sub-27	2	70	crossed	same	different	100	left	upper	left	lower	1	850	ses-1	450
sub-27	2	71	crossed	same	same	300	left	lower	left	lower	1	433	ses-1	451
sub-27	2	72	crossed	different	same	300	left	lower	right	lower	0	631	ses-1	452
sub-27	2	73	crossed	different	same	50	left	lower	right	lower	0	726	ses-1	453
sub-27	2	74	crossed	different	different	100	right	lower	left	upper	1	623	ses-1	454
sub-27	2	75	crossed	different	different	800	right	upper	left	lower	1	468	ses-1	455
sub-27	2	76	crossed	same	same	300	left	lower	left	lower	1	725	ses-1	456
sub-27	2	77	crossed	different	different	800	right	lower	left	upper	1	555	ses-1	457
sub-27	2	78	crossed	same	different	100	left	upper	left	lower	1	900	ses-1	458
sub-27	2	79	crossed	same	same	300	left	lower	left	lower	1	621	ses-1	459
sub-27	2	80	crossed	same	same	50	right	lower	right	lower	1	885	ses-1	460
sub-27	2	81	crossed	same	same	800	left	lower	left	lower	1	604	ses-1	461
sub-27	2	82	crossed	different	different	100	left	lower	right	upper	0	708	ses-1	462
sub-27	2	83	crossed	different	same	800	left	lower	right	lower	0	665	ses-1	463
sub-27	2	84	crossed	different	same	300	left	lower	right	lower	0	618	ses-1	464
sub-27	2	85	crossed	different	same	800	right	lower	left	lower	0	450	ses-1	465
sub-27	2	86	crossed	same	different	50	left	upper	left	lower	1	525	ses-1	466
sub-27	2	87	crossed	different	same	100	left	lower	right	lower	0	1043	ses-1	467
sub-27	2	88	crossed	same	different	300	left	lower	left	upper	1	206	ses-1	468
sub-27	2	90	crossed	same	different	800	left	upper	left	lower	1	160	ses-1	469
sub-27	2	91	crossed	different	different	50	right	lower	left	upper	0	1071	ses-1	470
sub-27	2	92	crossed	same	same	100	left	lower	left	lower	1	1428	ses-1	471
sub-27	2	93	crossed	different	different	50	left	lower	right	upper	0	1245	ses-1	472
sub-27	2	94	crossed	different	same	50	right	lower	left	lower	1	698	ses-1	473
sub-27	2	95	crossed	same	same	100	right	lower	right	lower	0	1474	ses-1	474
sub-27	2	96	crossed	different	same	50	left	lower	right	lower	0	1186	ses-1	475
sub-27	2	97	crossed	different	same	100	right	lower	left	lower	0	624	ses-1	476
sub-27	2	98	crossed	same	same	300	left	lower	left	lower	1	1720	ses-1	477
sub-27	2	99	crossed	different	different	300	right	lower	left	upper	0	575	ses-1	478
sub-27	2	101	crossed	different	different	100	right	lower	left	upper	0	566	ses-1	479
sub-27	2	102	crossed	same	same	50	left	lower	left	lower	1	992	ses-1	480
sub-27	2	103	crossed	different	different	50	left	upper	right	lower	0	723	ses-1	481
sub-27	2	104	crossed	same	same	100	right	lower	right	lower	1	117	ses-1	482
sub-27	2	105	crossed	different	different	50	left	upper	right	lower	0	500	ses-1	483
sub-27	2	106	crossed	same	different	100	right	upper	right	lower	1	1166	ses-1	484
sub-27	2	107	crossed	different	different	800	right	lower	left	upper	0	478	ses-1	485
sub-27	2	108	crossed	different	different	300	left	upper	right	lower	0	859	ses-1	486
sub-27	2	109	crossed	same	same	800	right	lower	right	lower	1	602	ses-1	487
sub-27	2	111	crossed	different	different	300	left	lower	right	upper	0	164	ses-1	488
sub-27	2	113	crossed	different	same	800	left	lower	right	lower	0	466	ses-1	489
sub-27	2	114	crossed	different	same	50	right	lower	left	lower	0	918	ses-1	490
sub-27	2	115	crossed	different	same	50	left	lower	right	lower	0	894	ses-1	491
sub-27	2	116	crossed	different	same	50	right	lower	left	lower	0	820	ses-1	492
sub-27	2	117	crossed	different	same	800	right	lower	left	lower	0	714	ses-1	493
sub-27	2	118	crossed	same	different	50	left	upper	left	lower	1	641	ses-1	494
sub-27	2	119	crossed	same	same	100	left	lower	left	lower	1	390	ses-1	495
sub-27	2	120	crossed	different	different	800	left	lower	right	upper	0	311	ses-1	496
sub-27	2	121	crossed	same	different	100	left	lower	left	upper	1	578	ses-1	497
sub-27	2	122	crossed	same	different	300	left	upper	left	lower	1	290	ses-1	498
sub-27	2	124	crossed	same	different	100	right	lower	right	upper	1	772	ses-1	499
sub-27	2	125	crossed	different	different	100	right	lower	left	upper	1	711	ses-1	500
sub-27	2	126	crossed	same	different	50	right	lower	right	upper	1	1636	ses-1	501
sub-27	2	127	crossed	same	different	100	right	lower	right	upper	1	644	ses-1	502
sub-27	2	128	crossed	same	different	100	right	upper	right	lower	1	687	ses-1	503
sub-27	2	129	crossed	same	different	300	left	lower	left	upper	1	91	ses-1	504
sub-27	2	130	crossed	different	same	800	left	lower	right	lower	0	272	ses-1	505
sub-27	2	131	crossed	different	different	300	right	upper	left	lower	0	17	ses-1	506
sub-27	2	132	crossed	different	same	100	right	lower	left	lower	0	571	ses-1	507
sub-27	2	134	crossed	same	different	100	right	lower	right	upper	1	1287	ses-1	508
sub-27	2	136	crossed	different	same	300	left	lower	right	lower	0	728	ses-1	509
sub-27	2	137	crossed	different	different	300	right	lower	left	upper	1	687	ses-1	510
sub-27	2	138	crossed	different	different	300	left	upper	right	lower	1	942	ses-1	511
sub-27	2	139	crossed	different	same	50	left	lower	right	lower	1	840	ses-1	512
sub-27	2	140	crossed	same	different	300	right	lower	right	upper	1	753	ses-1	513
sub-27	2	141	crossed	same	same	300	right	lower	right	lower	1	757	ses-1	514
sub-27	2	142	crossed	different	same	100	right	lower	left	lower	1	862	ses-1	515
sub-27	2	143	crossed	same	same	800	left	lower	left	lower	1	1313	ses-1	516
sub-27	2	144	crossed	different	same	800	left	lower	right	lower	1	1136	ses-1	517
sub-27	2	145	crossed	same	same	50	right	lower	right	lower	1	1769	ses-1	518
sub-27	2	146	crossed	different	same	300	left	lower	right	lower	1	647	ses-1	519
sub-27	2	147	crossed	different	different	100	left	upper	right	lower	1	1061	ses-1	520
sub-27	2	148	crossed	same	same	800	right	lower	right	lower	1	947	ses-1	521
sub-27	2	149	crossed	same	same	800	right	lower	right	lower	1	876	ses-1	522
sub-27	2	150	crossed	different	same	50	right	lower	left	lower	1	936	ses-1	523
sub-27	2	151	crossed	different	different	300	right	lower	left	upper	0	722	ses-1	524
sub-27	2	152	crossed	same	same	300	right	lower	right	lower	1	1290	ses-1	525
sub-27	2	153	crossed	different	same	300	left	lower	right	lower	1	951	ses-1	526
sub-27	2	154	crossed	same	same	800	left	lower	left	lower	1	586	ses-1	527
sub-27	2	155	crossed	different	different	100	left	lower	right	upper	1	1043	ses-1	528
sub-27	2	156	crossed	same	different	300	right	upper	right	lower	1	777	ses-1	529
sub-27	2	157	crossed	same	same	50	left	lower	left	lower	1	812	ses-1	530
sub-27	2	158	crossed	same	different	300	left	upper	left	lower	1	587	ses-1	531
sub-27	2	159	crossed	different	same	300	right	lower	left	lower	0	792	ses-1	532
sub-27	2	160	crossed	different	same	100	right	lower	left	lower	0	860	ses-1	533
sub-27	2	161	crossed	same	same	800	left	lower	left	lower	1	504	ses-1	534
sub-27	2	162	crossed	same	different	300	left	upper	left	lower	1	1032	ses-1	535
sub-27	2	163	crossed	same	same	300	left	lower	left	lower	1	760	ses-1	536
sub-27	2	164	crossed	different	different	300	left	upper	right	lower	1	598	ses-1	537
sub-27	2	165	crossed	same	same	300	right	lower	right	lower	1	669	ses-1	538
sub-27	2	166	crossed	different	same	300	right	lower	left	lower	1	683	ses-1	539
sub-27	2	167	crossed	same	same	300	right	lower	right	lower	1	758	ses-1	540
sub-27	2	168	crossed	different	different	50	right	upper	left	lower	1	1059	ses-1	541
sub-27	2	169	crossed	same	same	800	right	lower	right	lower	1	966	ses-1	542
sub-27	2	170	crossed	different	same	300	left	lower	right	lower	1	990	ses-1	543
sub-27	2	171	crossed	different	different	50	left	upper	right	lower	0	815	ses-1	544
sub-27	2	172	crossed	same	different	100	left	lower	left	upper	1	930	ses-1	545
sub-27	2	173	crossed	same	different	800	left	lower	left	upper	1	703	ses-1	546
sub-27	2	174	crossed	same	different	800	right	upper	right	lower	1	717	ses-1	547
sub-27	2	175	crossed	different	different	100	left	lower	right	upper	1	1150	ses-1	548
sub-27	2	176	crossed	different	same	100	left	lower	right	lower	1	1365	ses-1	549
sub-27	2	177	crossed	different	same	50	right	lower	left	lower	1	1149	ses-1	550
sub-27	2	178	crossed	same	different	50	right	upper	right	lower	1	916	ses-1	551
sub-27	2	179	crossed	same	same	100	right	lower	right	lower	1	792	ses-1	552
sub-27	2	180	crossed	different	different	800	right	lower	left	upper	1	823	ses-1	553
sub-27	2	181	crossed	different	same	300	right	lower	left	lower	1	1361	ses-1	554
sub-27	2	182	crossed	different	same	100	right	lower	left	lower	1	1706	ses-1	555
sub-27	2	183	crossed	same	same	50	left	lower	left	lower	0	1582	ses-1	556
sub-27	2	184	crossed	different	same	100	right	lower	left	lower	1	1133	ses-1	557
sub-27	2	185	crossed	different	same	800	left	lower	right	lower	1	843	ses-1	558
sub-27	2	186	crossed	different	same	50	left	lower	right	lower	1	907	ses-1	559
sub-27	2	187	crossed	same	different	100	left	upper	left	lower	0	1189	ses-1	560
sub-27	2	188	crossed	same	same	800	right	lower	right	lower	1	530	ses-1	561
sub-27	2	189	crossed	same	same	800	right	lower	right	lower	0	867	ses-1	562
sub-27	2	190	crossed	different	different	300	left	lower	right	upper	1	1183	ses-1	563
sub-27	2	191	crossed	different	different	50	right	upper	left	lower	0	1816	ses-1	564
sub-27	2	192	crossed	same	same	300	right	lower	right	lower	0	1174	ses-1	565
sub-27	2	193	crossed	same	same	300	right	lower	right	lower	1	663	ses-1	566
sub-27	2	194	crossed	same	same	50	left	lower	left	lower	1	856	ses-1	567
sub-27	2	195	crossed	different	different	100	left	upper	right	lower	1	1042	ses-1	568
sub-27	2	196	crossed	same	same	50	right	lower	right	lower	1	1039	ses-1	569
sub-27	2	197	crossed	same	different	300	right	lower	right	upper	1	670	ses-1	570
sub-27	2	198	crossed	different	same	100	left	lower	right	lower	1	1169	ses-1	571
sub-27	2	199	crossed	same	same	300	left	lower	left	lower	1	1202	ses-1	572
sub-27	2	200	crossed	different	same	800	right	lower	left	lower	1	1228	ses-1	573
sub-27	2	201	crossed	different	different	100	left	upper	right	lower	0	1346	ses-1	574
sub-27	2	202	crossed	same	same	300	right	lower	right	lower	1	700	ses-1	575
sub-27	2	203	crossed	same	different	300	left	lower	left	upper	1	715	ses-1	576
sub-27	2	204	crossed	different	different	50	left	upper	right	lower	1	1005	ses-1	577
sub-27	2	205	crossed	different	different	300	right	lower	left	upper	1	1295	ses-1	578
sub-27	2	206	crossed	same	same	300	left	lower	left	lower	1	859	ses-1	579
sub-27	2	207	crossed	same	different	100	right	upper	right	lower	1	967	ses-1	580
sub-27	2	208	crossed	different	different	800	right	lower	left	upper	1	1140	ses-1	581
sub-27	2	209	crossed	different	same	300	left	lower	right	lower	0	1072	ses-1	582
sub-27	2	211	crossed	different	same	50	left	lower	right	lower	0	651	ses-1	583
sub-27	2	212	crossed	different	same	800	right	lower	left	lower	1	672	ses-1	584
sub-27	2	213	crossed	different	same	100	right	lower	left	lower	0	932	ses-1	585
sub-27	2	214	crossed	different	different	800	right	upper	left	lower	0	592	ses-1	586
sub-27	2	215	crossed	different	same	100	right	lower	left	lower	0	1039	ses-1	587
sub-27	2	216	crossed	different	same	800	right	lower	left	lower	0	676	ses-1	588
sub-27	2	217	crossed	same	different	800	left	upper	left	lower	1	552	ses-1	589
sub-27	2	218	crossed	same	different	300	right	upper	right	lower	1	666	ses-1	590
sub-27	2	219	crossed	different	same	100	left	lower	right	lower	0	696	ses-1	591
sub-27	2	220	crossed	same	different	300	left	lower	left	upper	1	501	ses-1	592
sub-27	2	221	crossed	same	different	50	left	lower	left	upper	1	1030	ses-1	593
sub-27	2	222	crossed	different	different	800	right	upper	left	lower	1	797	ses-1	594
sub-27	2	223	crossed	same	different	800	right	lower	right	upper	1	928	ses-1	595
sub-27	2	224	crossed	same	same	100	right	lower	right	lower	1	1538	ses-1	596
sub-27	2	225	crossed	same	different	800	right	upper	right	lower	1	444	ses-1	597
sub-27	2	226	crossed	different	same	100	left	lower	right	lower	1	1178	ses-1	598
sub-27	2	227	crossed	same	different	100	left	lower	left	upper	1	896	ses-1	599
sub-27	2	228	crossed	same	same	100	right	lower	right	lower	1	892	ses-1	600
sub-27	2	229	crossed	different	same	100	left	lower	right	lower	1	1076	ses-1	601
sub-27	2	230	crossed	different	different	800	right	lower	left	upper	0	607	ses-1	602
sub-27	2	231	crossed	same	different	300	left	lower	left	upper	1	535	ses-1	603
sub-27	2	232	crossed	same	different	800	left	lower	left	upper	1	490	ses-1	604
sub-27	2	233	crossed	same	different	800	right	lower	right	upper	1	447	ses-1	605
sub-27	2	234	crossed	different	different	100	right	upper	left	lower	0	731	ses-1	606
sub-27	2	235	crossed	same	same	800	right	lower	right	lower	1	452	ses-1	607
sub-27	2	236	crossed	same	different	100	right	lower	right	upper	1	763	ses-1	608
sub-27	2	237	crossed	different	same	50	left	lower	right	lower	0	855	ses-1	609
sub-27	2	238	crossed	same	same	300	right	lower	right	lower	1	556	ses-1	610
sub-27	2	239	crossed	different	same	100	left	lower	right	lower	0	68	ses-1	611
sub-27	2	240	crossed	different	different	800	left	upper	right	lower	0	48	ses-1	612
sub-27	2	241	crossed	different	same	800	left	lower	right	lower	0	58	ses-1	613
sub-27	2	242	crossed	different	different	100	left	lower	right	upper	0	741	ses-1	614
sub-27	2	243	crossed	same	same	800	left	lower	left	lower	1	235	ses-1	615
sub-27	2	244	crossed	different	same	100	right	lower	left	lower	0	851	ses-1	616
sub-27	2	245	crossed	same	same	800	right	lower	right	lower	1	275	ses-1	617
sub-27	2	246	crossed	different	same	300	left	lower	right	lower	0	733	ses-1	618
sub-27	2	247	crossed	same	different	300	right	lower	right	upper	1	472	ses-1	619
sub-27	2	248	crossed	different	same	50	right	lower	left	lower	0	656	ses-1	620
sub-27	2	249	crossed	same	same	300	left	lower	left	lower	1	689	ses-1	621
sub-27	2	250	crossed	different	different	50	right	lower	left	upper	0	909	ses-1	622
sub-27	2	251	crossed	same	same	50	left	lower	left	lower	1	807	ses-1	623
sub-27	2	252	crossed	different	different	50	right	upper	left	lower	1	1185	ses-1	624
sub-27	2	253	crossed	different	different	800	left	upper	right	lower	1	1186	ses-1	625
sub-27	2	254	crossed	different	different	300	left	lower	right	upper	0	1033	ses-1	626
sub-27	2	255	crossed	same	different	300	left	upper	left	lower	1	331	ses-1	627
sub-27	2	256	crossed	same	same	800	left	lower	left	lower	1	462	ses-1	628
sub-27	2	257	crossed	same	different	50	left	lower	left	upper	1	1527	ses-1	629
sub-27	2	258	crossed	different	same	300	left	lower	right	lower	0	527	ses-1	630
sub-27	2	259	crossed	same	different	50	right	upper	right	lower	1	945	ses-1	631
sub-27	2	261	crossed	different	same	50	left	lower	right	lower	0	606	ses-1	632
sub-27	2	262	crossed	same	different	100	right	upper	right	lower	1	503	ses-1	633
sub-27	2	263	crossed	different	same	50	right	lower	left	lower	0	881	ses-1	634
sub-27	2	265	crossed	different	different	800	left	upper	right	lower	0	174	ses-1	635
sub-27	2	266	crossed	different	different	50	left	upper	right	lower	0	1084	ses-1	636
sub-27	2	267	crossed	same	different	100	left	upper	left	lower	1	824	ses-1	637
sub-27	2	268	crossed	different	different	50	left	lower	right	upper	0	506	ses-1	638
sub-27	2	269	crossed	same	different	800	left	upper	left	lower	1	466	ses-1	639
sub-27	2	270	crossed	same	same	800	left	lower	left	lower	1	521	ses-1	640
sub-27	2	271	crossed	different	different	50	left	lower	right	upper	0	1154	ses-1	641
sub-27	2	272	crossed	same	same	300	right	lower	right	lower	1	611	ses-1	642
sub-27	2	273	crossed	same	different	300	left	upper	left	lower	1	621	ses-1	643
sub-27	2	274	crossed	same	same	100	right	lower	right	lower	1	622	ses-1	644
sub-27	2	275	crossed	same	same	800	right	lower	right	lower	1	509	ses-1	645
sub-27	2	276	crossed	same	same	100	right	lower	right	lower	1	788	ses-1	646
sub-27	2	277	crossed	different	different	800	right	lower	left	upper	1	654	ses-1	647
sub-27	2	278	crossed	different	different	50	left	lower	right	upper	0	738	ses-1	648
sub-27	2	279	crossed	same	same	50	right	lower	right	lower	1	654	ses-1	649
sub-27	2	280	crossed	different	different	100	right	upper	left	lower	0	635	ses-1	650
sub-27	2	281	crossed	different	same	800	right	lower	left	lower	1	505	ses-1	651
sub-27	2	282	crossed	same	different	800	left	lower	left	upper	1	666	ses-1	652
sub-27	2	283	crossed	same	same	300	left	lower	left	lower	1	560	ses-1	653
sub-27	2	284	crossed	same	different	50	right	upper	right	lower	1	1455	ses-1	654
sub-27	2	285	crossed	same	same	50	right	lower	right	lower	1	1143	ses-1	655
sub-27	2	286	crossed	same	same	50	left	lower	left	lower	1	569	ses-1	656
sub-27	2	287	crossed	same	same	300	left	lower	left	lower	1	551	ses-1	657
sub-27	2	288	crossed	same	same	800	left	lower	left	lower	1	484	ses-1	658
sub-27	2	289	crossed	same	different	50	left	upper	left	lower	1	1825	ses-1	659
sub-27	2	290	crossed	same	same	50	right	lower	right	lower	1	912	ses-1	660
sub-27	2	291	crossed	different	different	800	right	upper	left	lower	1	831	ses-1	661
sub-27	2	292	crossed	same	same	100	left	lower	left	lower	1	915	ses-1	662
sub-27	2	293	crossed	same	different	100	right	lower	right	upper	1	909	ses-1	663
sub-27	2	294	crossed	same	same	100	left	lower	left	lower	1	929	ses-1	664
sub-27	2	295	crossed	same	different	300	right	upper	right	lower	1	823	ses-1	665
sub-27	2	296	crossed	same	different	800	right	lower	right	upper	1	592	ses-1	666
sub-27	2	297	crossed	different	different	50	right	upper	left	lower	0	788	ses-1	667
sub-27	2	298	crossed	different	same	800	left	lower	right	lower	0	1017	ses-1	668
sub-27	2	299	crossed	different	same	50	left	lower	right	lower	1	824	ses-1	669
sub-27	2	300	crossed	different	different	300	right	upper	left	lower	0	464	ses-1	670
sub-27	2	301	crossed	different	same	800	right	lower	left	lower	0	596	ses-1	671
sub-27	2	302	crossed	different	same	300	left	lower	right	lower	0	660	ses-1	672
sub-27	2	303	crossed	different	same	100	right	lower	left	lower	0	1097	ses-1	673
sub-27	2	304	crossed	different	same	300	right	lower	left	lower	0	1039	ses-1	674
sub-27	2	305	crossed	same	different	100	left	lower	left	upper	0	872	ses-1	675
sub-27	2	306	crossed	same	different	50	left	upper	left	lower	1	965	ses-1	676
sub-27	2	307	crossed	different	different	300	right	upper	left	lower	0	611	ses-1	677
sub-27	2	309	crossed	different	different	100	left	upper	right	lower	0	721	ses-1	678
sub-27	2	310	crossed	same	different	300	left	upper	left	lower	1	529	ses-1	679
sub-27	2	311	crossed	different	same	100	right	lower	left	lower	0	898	ses-1	680
sub-27	2	312	crossed	same	same	100	right	lower	right	lower	1	688	ses-1	681
sub-27	2	313	crossed	same	same	100	left	lower	left	lower	1	703	ses-1	682
sub-27	2	314	crossed	same	same	50	left	lower	left	lower	1	637	ses-1	683
sub-27	2	315	crossed	different	same	300	right	lower	left	lower	1	880	ses-1	684
sub-27	2	316	crossed	different	different	100	right	upper	left	lower	0	592	ses-1	685
sub-27	2	317	crossed	same	different	800	right	upper	right	lower	0	716	ses-1	686
sub-27	2	318	crossed	different	different	300	left	lower	right	upper	0	830	ses-1	687
sub-27	2	319	crossed	same	same	100	left	lower	left	lower	1	1003	ses-1	688
sub-27	2	320	crossed	same	same	50	left	lower	left	lower	1	741	ses-1	689
sub-27	2	321	crossed	different	different	800	right	upper	left	lower	1	731	ses-1	690
sub-27	2	322	crossed	different	same	300	right	lower	left	lower	0	826	ses-1	691
sub-27	2	323	crossed	same	different	50	left	upper	left	lower	1	1164	ses-1	692
sub-27	2	324	crossed	same	different	300	right	lower	right	upper	1	497	ses-1	693
sub-27	2	325	crossed	same	different	800	left	lower	left	upper	1	348	ses-1	694
sub-27	2	326	crossed	different	same	100	right	lower	left	lower	0	799	ses-1	695
sub-27	2	327	crossed	different	different	300	left	lower	right	upper	0	101	ses-1	696
sub-27	2	328	crossed	different	different	300	right	lower	left	upper	0	654	ses-1	697
sub-27	2	329	crossed	different	same	100	left	lower	right	lower	0	1223	ses-1	698
sub-27	2	330	crossed	same	different	100	left	upper	left	lower	1	776	ses-1	699
sub-27	2	331	crossed	same	same	50	right	lower	right	lower	1	708	ses-1	700
sub-27	2	332	crossed	same	same	300	right	lower	right	lower	1	714	ses-1	701
sub-27	2	333	crossed	same	same	100	right	lower	right	lower	1	566	ses-1	702
sub-27	2	334	crossed	different	same	300	right	lower	left	lower	0	412	ses-1	703
sub-27	2	335	crossed	same	same	50	right	lower	right	lower	1	652	ses-1	704
sub-27	2	336	crossed	same	different	800	right	upper	right	lower	1	569	ses-1	705
sub-27	2	337	crossed	different	different	50	left	upper	right	lower	0	768	ses-1	706
sub-27	2	338	crossed	same	different	800	left	upper	left	lower	1	653	ses-1	707
sub-27	2	339	crossed	same	same	50	right	lower	right	lower	1	670	ses-1	708
sub-27	2	340	crossed	same	same	50	left	lower	left	lower	1	1024	ses-1	709
sub-27	2	341	crossed	different	different	50	right	lower	left	upper	0	769	ses-1	710
sub-27	2	342	crossed	different	same	800	right	lower	left	lower	0	481	ses-1	711
sub-27	2	343	crossed	same	same	100	left	lower	left	lower	1	608	ses-1	712
sub-27	2	344	crossed	different	same	100	left	lower	right	lower	0	567	ses-1	713
sub-27	2	345	crossed	different	different	300	left	upper	right	lower	0	667	ses-1	714
sub-27	2	346	crossed	same	same	800	left	lower	left	lower	1	573	ses-1	715
sub-27	2	348	crossed	same	same	100	left	lower	left	lower	1	433	ses-1	716
sub-27	2	349	crossed	different	different	100	left	lower	right	upper	1	876	ses-1	717
sub-27	2	350	crossed	different	same	300	right	lower	left	lower	1	685	ses-1	718
sub-27	2	351	crossed	different	same	300	right	lower	left	lower	1	842	ses-1	719
sub-27	2	352	crossed	different	different	100	left	upper	right	lower	1	1313	ses-1	720
sub-27	2	353	crossed	different	different	50	left	lower	right	upper	1	945	ses-1	721
sub-27	2	354	crossed	same	same	100	right	lower	right	lower	1	603	ses-1	722
sub-27	2	355	crossed	different	same	50	right	lower	left	lower	0	748	ses-1	723
sub-27	2	356	crossed	different	same	300	right	lower	left	lower	0	411	ses-1	724
sub-27	2	357	crossed	same	different	50	right	lower	right	upper	1	348	ses-1	725
sub-27	2	358	crossed	different	same	50	left	lower	right	lower	0	853	ses-1	726
sub-27	2	359	crossed	same	different	50	left	lower	left	upper	1	961	ses-1	727
sub-27	2	360	crossed	same	same	100	right	lower	right	lower	1	756	ses-1	728
sub-27	2	361	crossed	different	different	300	left	lower	right	upper	0	695	ses-1	729
sub-27	2	362	crossed	same	different	50	right	lower	right	upper	1	1394	ses-1	730
sub-27	2	363	crossed	same	same	800	left	lower	left	lower	1	138	ses-1	731
sub-27	2	364	crossed	same	different	300	right	upper	right	lower	1	803	ses-1	732
sub-27	2	365	crossed	different	different	800	left	upper	right	lower	0	701	ses-1	733
sub-27	2	366	crossed	different	same	50	left	lower	right	lower	0	952	ses-1	734
sub-27	2	367	crossed	same	different	100	right	lower	right	upper	1	963	ses-1	735
sub-27	2	368	crossed	same	same	50	left	lower	left	lower	1	873	ses-1	736
sub-27	2	369	crossed	different	same	50	right	lower	left	lower	0	818	ses-1	737
sub-27	2	370	crossed	same	different	800	right	upper	right	lower	1	328	ses-1	738
sub-27	2	371	crossed	different	same	50	right	lower	left	lower	0	615	ses-1	739
sub-27	2	372	crossed	same	different	100	right	upper	right	lower	1	893	ses-1	740
sub-27	2	373	crossed	different	different	300	left	upper	right	lower	0	779	ses-1	741
sub-27	2	374	crossed	different	same	800	left	lower	right	lower	0	63	ses-1	742
sub-27	2	375	crossed	same	different	50	right	lower	right	upper	1	979	ses-1	743
sub-27	2	376	crossed	same	same	100	left	lower	left	lower	1	1123	ses-1	744
sub-27	2	377	crossed	different	different	300	right	upper	left	lower	0	542	ses-1	745
sub-27	2	378	crossed	same	different	800	right	lower	right	upper	1	410	ses-1	746
sub-27	2	379	crossed	same	same	50	left	lower	left	lower	1	699	ses-1	747
sub-27	2	380	crossed	same	same	100	right	lower	right	lower	1	798	ses-1	748
sub-27	2	381	crossed	same	different	800	left	lower	left	upper	1	651	ses-1	749
sub-27	2	383	crossed	different	different	300	left	upper	right	lower	0	564	ses-1	750
sub-27	2	384	crossed	same	different	800	left	upper	left	lower	1	723	ses-1	751
sub-27	2	385	crossed	different	same	800	right	lower	left	lower	0	117	ses-1	752
sub-27	2	386	crossed	different	same	800	left	lower	right	lower	0	683	ses-1	753
sub-27	2	387	crossed	different	different	800	left	lower	right	upper	0	589	ses-1	754
sub-27	2	388	crossed	same	same	800	right	lower	right	lower	1	666	ses-1	755
sub-27	2	389	crossed	same	different	300	right	lower	right	upper	1	838	ses-1	756
sub-27	2	390	crossed	different	different	800	left	upper	right	lower	1	963	ses-1	757
sub-27	2	391	crossed	different	same	800	right	lower	left	lower	1	794	ses-1	758
sub-27	2	392	crossed	same	different	300	right	upper	right	lower	1	859	ses-1	759
sub-27	2	393	crossed	same	different	800	left	upper	left	lower	1	708	ses-1	760
sub-27	2	394	crossed	different	different	100	left	upper	right	lower	1	946	ses-1	761
sub-27	2	395	crossed	different	same	800	right	lower	left	lower	1	1067	ses-1	762
sub-27	2	396	crossed	different	different	100	right	lower	left	upper	0	845	ses-1	763
sub-27	2	397	crossed	different	different	100	right	upper	left	lower	1	915	ses-1	764
sub-27	2	398	crossed	same	different	800	right	lower	right	upper	1	548	ses-1	765
sub-27	2	399	crossed	same	different	800	left	lower	left	upper	0	630	ses-1	766
sub-27	2	400	crossed	same	different	50	right	upper	right	lower	1	747	ses-1	767
sub-27	2	401	crossed	different	different	800	left	upper	right	lower	0	730	ses-1	768
sub-27	1	1	uncrossed	same	same	800	right	lower	right	lower	1	950	ses-1	769
sub-27	1	2	uncrossed	different	different	800	left	lower	right	upper	1	799	ses-1	770
sub-27	1	3	uncrossed	different	different	300	right	lower	left	upper	1	683	ses-1	771
sub-27	1	4	uncrossed	same	same	300	right	lower	right	lower	1	798	ses-1	772
sub-27	1	5	uncrossed	different	different	800	right	upper	left	lower	1	695	ses-1	773
sub-27	1	6	uncrossed	same	same	800	right	lower	right	lower	1	572	ses-1	774
sub-27	1	8	uncrossed	same	different	100	left	lower	left	upper	1	927	ses-1	775
sub-27	1	9	uncrossed	same	different	100	right	lower	right	upper	1	928	ses-1	776
sub-27	1	10	uncrossed	different	different	100	left	upper	right	lower	1	855	ses-1	777
sub-27	1	11	uncrossed	same	same	50	right	lower	right	lower	1	796	ses-1	778
sub-27	1	12	uncrossed	same	same	50	right	lower	right	lower	1	1072	ses-1	779
sub-27	1	13	uncrossed	same	same	800	left	lower	left	lower	1	607	ses-1	780
sub-27	1	14	uncrossed	different	different	50	left	lower	right	upper	1	1009	ses-1	781
sub-27	1	15	uncrossed	different	different	800	right	lower	left	upper	1	697	ses-1	782
sub-27	1	16	uncrossed	different	same	300	right	lower	left	lower	1	1369	ses-1	783
sub-27	1	17	uncrossed	different	different	50	right	upper	left	lower	1	975	ses-1	784
sub-27	1	18	uncrossed	different	same	300	left	lower	right	lower	1	700	ses-1	785
sub-27	1	19	uncrossed	different	same	50	left	lower	right	lower	1	727	ses-1	786
sub-27	1	20	uncrossed	different	different	300	left	upper	right	lower	1	537	ses-1	787
sub-27	1	21	uncrossed	different	same	100	left	lower	right	lower	1	562	ses-1	788
sub-27	1	22	uncrossed	different	different	300	left	upper	right	lower	1	548	ses-1	789
sub-27	1	23	uncrossed	different	same	50	right	lower	left	lower	1	496	ses-1	790
sub-27	1	24	uncrossed	different	same	50	left	lower	right	lower	1	643	ses-1	791
sub-27	1	25	uncrossed	different	different	50	right	upper	left	lower	1	883	ses-1	792
sub-27	1	26	uncrossed	different	different	50	right	lower	left	upper	1	540	ses-1	793
sub-27	1	27	uncrossed	different	same	300	right	lower	left	lower	1	472	ses-1	794
sub-27	1	29	uncrossed	different	different	800	left	lower	right	upper	1	929	ses-1	795
sub-27	1	30	uncrossed	different	different	800	left	upper	right	lower	1	738	ses-1	796
sub-27	1	31	uncrossed	same	same	50	left	lower	left	lower	1	1066	ses-1	797
sub-27	1	32	uncrossed	same	same	800	right	lower	right	lower	1	608	ses-1	798
sub-27	1	33	uncrossed	same	different	800	right	lower	right	upper	1	492	ses-1	799
sub-27	1	34	uncrossed	different	different	100	right	lower	left	upper	1	826	ses-1	800
sub-27	1	35	uncrossed	same	different	300	right	lower	right	upper	1	623	ses-1	801
sub-27	1	36	uncrossed	different	different	50	left	lower	right	upper	1	756	ses-1	802
sub-27	1	37	uncrossed	different	different	300	left	lower	right	upper	1	834	ses-1	803
sub-27	1	38	uncrossed	different	different	300	left	upper	right	lower	1	648	ses-1	804
sub-27	1	39	uncrossed	different	different	50	right	lower	left	upper	1	638	ses-1	805
sub-27	1	40	uncrossed	different	same	300	right	lower	left	lower	0	1269	ses-1	806
sub-27	1	41	uncrossed	same	same	800	right	lower	right	lower	1	703	ses-1	807
sub-27	1	42	uncrossed	different	different	100	right	upper	left	lower	0	1295	ses-1	808
sub-27	1	43	uncrossed	different	different	800	left	upper	right	lower	1	923	ses-1	809
sub-27	1	44	uncrossed	different	same	100	left	lower	right	lower	0	1440	ses-1	810
sub-27	1	45	uncrossed	different	same	800	right	lower	left	lower	1	715	ses-1	811
sub-27	1	46	uncrossed	same	same	800	right	lower	right	lower	1	699	ses-1	812
sub-27	1	47	uncrossed	different	same	100	right	lower	left	lower	1	971	ses-1	813
sub-27	1	48	uncrossed	same	different	300	right	lower	right	upper	1	500	ses-1	814
sub-27	1	49	uncrossed	same	same	800	left	lower	left	lower	1	888	ses-1	815
sub-27	1	50	uncrossed	same	same	50	right	lower	right	lower	1	1366	ses-1	816
sub-27	1	51	uncrossed	different	different	300	right	upper	left	lower	1	726	ses-1	817
sub-27	1	52	uncrossed	different	same	800	right	lower	left	lower	1	1539	ses-1	818
sub-27	1	53	uncrossed	same	different	50	right	lower	right	upper	1	986	ses-1	819
sub-27	1	54	uncrossed	same	same	50	right	lower	right	lower	1	1301	ses-1	820
sub-27	1	55	uncrossed	same	same	100	left	lower	left	lower	1	947	ses-1	821
sub-27	1	56	uncrossed	same	different	300	right	upper	right	lower	1	690	ses-1	822
sub-27	1	57	uncrossed	different	same	300	right	lower	left	lower	0	487	ses-1	823
sub-27	1	58	uncrossed	different	same	300	left	lower	right	lower	1	717	ses-1	824
sub-27	1	59	uncrossed	different	different	800	left	upper	right	lower	0	488	ses-1	825
sub-27	1	60	uncrossed	same	same	50	right	lower	right	lower	1	892	ses-1	826
sub-27	1	62	uncrossed	same	same	300	left	lower	left	lower	1	1026	ses-1	827
sub-27	1	63	uncrossed	same	different	800	right	lower	right	upper	1	755	ses-1	828
sub-27	1	64	uncrossed	different	same	800	left	lower	right	lower	1	926	ses-1	829
sub-27	1	65	uncrossed	same	different	100	left	upper	left	lower	1	671	ses-1	830
sub-27	1	67	uncrossed	same	different	300	left	lower	left	upper	1	789	ses-1	831
sub-27	1	68	uncrossed	same	same	300	right	lower	right	lower	1	703	ses-1	832
sub-27	1	69	uncrossed	same	different	800	left	upper	left	lower	1	1591	ses-1	833
sub-27	1	70	uncrossed	same	different	50	right	lower	right	upper	1	1054	ses-1	834
sub-27	1	72	uncrossed	same	same	800	left	lower	left	lower	1	1147	ses-1	835
sub-27	1	73	uncrossed	same	different	50	right	upper	right	lower	1	884	ses-1	836
sub-27	1	74	uncrossed	different	different	100	right	lower	left	upper	1	1156	ses-1	837
sub-27	1	75	uncrossed	same	different	100	right	upper	right	lower	1	998	ses-1	838
sub-27	1	76	uncrossed	same	same	100	left	lower	left	lower	1	1249	ses-1	839
sub-27	1	77	uncrossed	same	different	100	right	upper	right	lower	1	816	ses-1	840
sub-27	1	79	uncrossed	different	different	50	left	upper	right	lower	1	1175	ses-1	841
sub-27	1	80	uncrossed	different	different	50	left	upper	right	lower	1	1017	ses-1	842
sub-27	1	81	uncrossed	different	different	50	right	upper	left	lower	1	725	ses-1	843
sub-27	1	82	uncrossed	different	different	100	left	upper	right	lower	1	718	ses-1	844
sub-27	1	83	uncrossed	different	same	50	right	lower	left	lower	1	406	ses-1	845
sub-27	1	84	uncrossed	different	different	300	left	lower	right	upper	1	650	ses-1	846
sub-27	1	85	uncrossed	same	different	300	right	lower	right	upper	1	838	ses-1	847
sub-27	1	86	uncrossed	different	different	100	left	upper	right	lower	1	804	ses-1	848
sub-27	1	87	uncrossed	same	different	800	left	upper	left	lower	1	796	ses-1	849
sub-27	1	88	uncrossed	different	different	100	right	upper	left	lower	0	745	ses-1	850
sub-27	1	90	uncrossed	same	same	800	left	lower	left	lower	1	746	ses-1	851
sub-27	1	91	uncrossed	same	same	300	left	lower	left	lower	1	669	ses-1	852
sub-27	1	92	uncrossed	same	same	100	right	lower	right	lower	1	909	ses-1	853
sub-27	1	93	uncrossed	same	same	300	right	lower	right	lower	1	600	ses-1	854
sub-27	1	94	uncrossed	same	same	100	left	lower	left	lower	1	576	ses-1	855
sub-27	1	95	uncrossed	different	same	100	right	lower	left	lower	1	793	ses-1	856
sub-27	1	96	uncrossed	same	different	300	left	lower	left	upper	1	521	ses-1	857
sub-27	1	97	uncrossed	different	different	50	right	lower	left	upper	1	1029	ses-1	858
sub-27	1	98	uncrossed	different	same	300	left	lower	right	lower	1	718	ses-1	859
sub-27	1	99	uncrossed	same	different	300	left	lower	left	upper	1	604	ses-1	860
sub-27	1	100	uncrossed	same	same	50	right	lower	right	lower	1	1322	ses-1	861
sub-27	1	101	uncrossed	same	same	800	left	lower	left	lower	1	825	ses-1	862
sub-27	1	102	uncrossed	same	same	100	right	lower	right	lower	1	1064	ses-1	863
sub-27	1	103	uncrossed	different	different	800	left	lower	right	upper	1	847	ses-1	864
sub-27	1	104	uncrossed	same	same	800	right	lower	right	lower	1	1081	ses-1	865
sub-27	1	105	uncrossed	different	different	100	left	lower	right	upper	1	972	ses-1	866
sub-27	1	106	uncrossed	different	same	50	left	lower	right	lower	1	1033	ses-1	867
sub-27	1	107	uncrossed	same	same	800	right	lower	right	lower	1	628	ses-1	868
sub-27	1	108	uncrossed	different	different	800	right	upper	left	lower	1	759	ses-1	869
sub-27	1	109	uncrossed	different	different	50	right	upper	left	lower	1	721	ses-1	870
sub-27	1	110	uncrossed	same	different	50	left	lower	left	upper	1	2243	ses-1	871
sub-27	1	111	uncrossed	different	same	100	right	lower	left	lower	1	1086	ses-1	872
sub-27	1	112	uncrossed	different	same	100	left	lower	right	lower	0	1561	ses-1	873
sub-27	1	113	uncrossed	different	same	300	right	lower	left	lower	0	757	ses-1	874
sub-27	1	114	uncrossed	same	same	100	left	lower	left	lower	1	1512	ses-1	875
sub-27	1	115	uncrossed	different	different	800	right	lower	left	upper	0	563	ses-1	876
sub-27	1	116	uncrossed	same	same	100	right	lower	right	lower	1	951	ses-1	877
sub-27	1	117	uncrossed	different	different	800	right	lower	left	upper	1	1413	ses-1	878
sub-27	1	118	uncrossed	different	same	800	left	lower	right	lower	1	1072	ses-1	879
sub-27	1	119	uncrossed	same	different	800	right	lower	right	upper	1	731	ses-1	880
sub-27	1	120	uncrossed	different	same	100	right	lower	left	lower	0	1396	ses-1	881
sub-27	1	121	uncrossed	same	different	50	right	upper	right	lower	1	977	ses-1	882
sub-27	1	122	uncrossed	different	different	100	left	lower	right	upper	0	2267	ses-1	883
sub-27	1	123	uncrossed	different	different	800	right	lower	left	upper	1	975	ses-1	884
sub-27	1	124	uncrossed	same	different	50	left	upper	left	lower	1	1263	ses-1	885
sub-27	1	125	uncrossed	same	different	100	left	lower	left	upper	1	650	ses-1	886
sub-27	1	126	uncrossed	different	same	800	left	lower	right	lower	1	1050	ses-1	887
sub-27	1	127	uncrossed	same	same	100	left	lower	left	lower	1	742	ses-1	888
sub-27	1	129	uncrossed	same	different	300	left	upper	left	lower	1	637	ses-1	889
sub-27	1	130	uncrossed	different	same	50	right	lower	left	lower	0	824	ses-1	890
sub-27	1	131	uncrossed	same	different	100	right	upper	right	lower	1	616	ses-1	891
sub-27	1	132	uncrossed	same	different	300	left	lower	left	upper	1	1528	ses-1	892
sub-27	1	133	uncrossed	same	same	300	left	lower	left	lower	1	582	ses-1	893
sub-27	1	134	uncrossed	same	different	50	right	lower	right	upper	1	1735	ses-1	894
sub-27	1	135	uncrossed	different	different	100	right	lower	left	upper	1	1061	ses-1	895
sub-27	1	136	uncrossed	different	different	50	right	lower	left	upper	1	1483	ses-1	896
sub-27	1	137	uncrossed	same	different	50	right	upper	right	lower	1	800	ses-1	897
sub-27	1	138	uncrossed	same	same	300	left	lower	left	lower	1	845	ses-1	898
sub-27	1	139	uncrossed	different	different	800	left	upper	right	lower	1	916	ses-1	899
sub-27	1	140	uncrossed	different	different	300	left	lower	right	upper	0	664	ses-1	900
sub-27	1	141	uncrossed	same	same	50	right	lower	right	lower	1	767	ses-1	901
sub-27	1	142	uncrossed	different	different	300	left	lower	right	upper	0	727	ses-1	902
sub-27	1	143	uncrossed	same	same	100	right	lower	right	lower	1	535	ses-1	903
sub-27	1	144	uncrossed	same	different	800	left	lower	left	upper	1	200	ses-1	904
sub-27	1	145	uncrossed	different	different	300	right	upper	left	lower	0	655	ses-1	905
sub-27	1	146	uncrossed	different	same	800	right	lower	left	lower	1	872	ses-1	906
sub-27	1	147	uncrossed	same	different	50	left	lower	left	upper	1	1332	ses-1	907
sub-27	1	148	uncrossed	same	different	100	right	lower	right	upper	1	767	ses-1	908
sub-27	1	149	uncrossed	different	same	100	left	lower	right	lower	1	901	ses-1	909
sub-27	1	150	uncrossed	same	same	100	left	lower	left	lower	1	776	ses-1	910
sub-27	1	151	uncrossed	same	different	50	right	upper	right	lower	1	1201	ses-1	911
sub-27	1	153	uncrossed	same	different	100	right	lower	right	upper	1	715	ses-1	912
sub-27	1	154	uncrossed	different	different	100	left	lower	right	upper	1	1323	ses-1	913
sub-27	1	155	uncrossed	same	different	800	left	lower	left	upper	1	1127	ses-1	914
sub-27	1	156	uncrossed	different	different	50	left	lower	right	upper	1	1294	ses-1	915
sub-27	1	157	uncrossed	same	same	50	left	lower	left	lower	1	1262	ses-1	916
sub-27	1	158	uncrossed	different	different	50	right	upper	left	lower	0	796	ses-1	917
sub-27	1	159	uncrossed	different	same	300	left	lower	right	lower	1	746	ses-1	918
sub-27	1	160	uncrossed	different	same	800	right	lower	left	lower	1	961	ses-1	919
sub-27	1	161	uncrossed	same	same	50	left	lower	left	lower	1	1714	ses-1	920
sub-27	1	162	uncrossed	same	same	300	left	lower	left	lower	1	674	ses-1	921
sub-27	1	163	uncrossed	same	different	300	left	upper	left	lower	1	405	ses-1	922
sub-27	1	164	uncrossed	same	different	300	left	lower	left	upper	1	1113	ses-1	923
sub-27	1	165	uncrossed	same	same	800	left	lower	left	lower	1	434	ses-1	924
sub-27	1	166	uncrossed	different	different	300	right	lower	left	upper	1	1074	ses-1	925
sub-27	1	167	uncrossed	same	same	50	left	lower	left	lower	1	1350	ses-1	926
sub-27	1	168	uncrossed	different	same	300	right	lower	left	lower	1	1026	ses-1	927
sub-27	1	169	uncrossed	same	same	50	left	lower	left	lower	1	781	ses-1	928
sub-27	1	170	uncrossed	same	different	50	right	lower	right	upper	0	1232	ses-1	929
sub-27	1	171	uncrossed	same	different	50	left	lower	left	upper	1	666	ses-1	930
sub-27	1	172	uncrossed	different	same	100	left	lower	right	lower	1	1250	ses-1	931
sub-27	1	173	uncrossed	same	same	100	right	lower	right	lower	1	696	ses-1	932
sub-27	1	174	uncrossed	same	different	50	left	upper	left	lower	1	591	ses-1	933
sub-27	1	175	uncrossed	different	same	100	right	lower	left	lower	1	1051	ses-1	934
sub-27	1	176	uncrossed	same	same	300	right	lower	right	lower	1	445	ses-1	935
sub-27	1	177	uncrossed	same	same	800	left	lower	left	lower	1	1283	ses-1	936
sub-27	1	178	uncrossed	same	different	300	left	upper	left	lower	0	852	ses-1	937
sub-27	1	179	uncrossed	different	same	800	left	lower	right	lower	0	447	ses-1	938
sub-27	1	180	uncrossed	different	same	100	left	lower	right	lower	1	766	ses-1	939
sub-27	1	181	uncrossed	different	different	300	right	lower	left	upper	1	460	ses-1	940
sub-27	1	182	uncrossed	same	different	50	right	upper	right	lower	1	867	ses-1	941
sub-27	1	183	uncrossed	same	different	800	right	upper	right	lower	1	58	ses-1	942
sub-27	1	184	uncrossed	different	same	50	left	lower	right	lower	0	481	ses-1	943
sub-27	1	186	uncrossed	different	same	50	left	lower	right	lower	0	1011	ses-1	944
sub-27	1	187	uncrossed	different	different	300	right	lower	left	upper	1	1095	ses-1	945
sub-27	1	189	uncrossed	different	different	100	left	upper	right	lower	0	772	ses-1	946
sub-27	1	190	uncrossed	different	same	100	right	lower	left	lower	1	1063	ses-1	947
sub-27	1	191	uncrossed	same	same	100	right	lower	right	lower	1	771	ses-1	948
sub-27	1	192	uncrossed	different	same	300	left	lower	right	lower	0	860	ses-1	949
sub-27	1	193	uncrossed	same	same	50	left	lower	left	lower	1	732	ses-1	950
sub-27	1	195	uncrossed	different	same	100	left	lower	right	lower	1	825	ses-1	951
sub-27	1	196	uncrossed	same	same	300	left	lower	left	lower	1	614	ses-1	952
sub-27	1	197	uncrossed	same	different	800	right	upper	right	lower	1	516	ses-1	953
sub-27	1	199	uncrossed	same	same	300	left	lower	left	lower	1	866	ses-1	954
sub-27	1	200	uncrossed	same	different	50	left	upper	left	lower	1	820	ses-1	955
sub-27	1	202	uncrossed	different	same	300	left	lower	right	lower	1	951	ses-1	956
sub-27	1	203	uncrossed	same	same	300	right	lower	right	lower	1	833	ses-1	957
sub-27	1	204	uncrossed	different	different	300	right	lower	left	upper	1	697	ses-1	958
sub-27	1	205	uncrossed	same	different	300	right	upper	right	lower	1	632	ses-1	959
sub-27	1	206	uncrossed	different	different	50	left	upper	right	lower	0	1166	ses-1	960
sub-27	1	207	uncrossed	same	different	100	right	upper	right	lower	1	987	ses-1	961
sub-27	1	208	uncrossed	same	same	50	left	lower	left	lower	0	1038	ses-1	962
sub-27	1	209	uncrossed	same	different	300	right	lower	right	upper	1	680	ses-1	963
sub-27	1	210	uncrossed	same	same	50	right	lower	right	lower	1	1269	ses-1	964
sub-27	1	211	uncrossed	different	different	100	right	lower	left	upper	0	1160	ses-1	965
sub-27	1	212	uncrossed	different	same	300	right	lower	left	lower	1	719	ses-1	966
sub-27	1	213	uncrossed	same	different	800	right	upper	right	lower	1	801	ses-1	967
sub-27	1	214	uncrossed	same	same	100	left	lower	left	lower	1	1146	ses-1	968
sub-27	1	215	uncrossed	different	different	100	right	lower	left	upper	1	1218	ses-1	969
sub-27	1	216	uncrossed	same	different	800	left	lower	left	upper	1	821	ses-1	970
sub-27	1	217	uncrossed	different	same	800	right	lower	left	lower	1	838	ses-1	971
sub-27	1	218	uncrossed	different	different	100	right	upper	left	lower	0	1006	ses-1	972
sub-27	1	219	uncrossed	same	same	50	left	lower	left	lower	0	867	ses-1	973
sub-27	1	220	uncrossed	same	different	800	right	lower	right	upper	1	975	ses-1	974
sub-27	1	221	uncrossed	same	different	800	left	upper	left	lower	1	986	ses-1	975
sub-27	1	222	uncrossed	same	same	300	left	lower	left	lower	1	789	ses-1	976
sub-27	1	223	uncrossed	same	different	300	right	upper	right	lower	1	1168	ses-1	977
sub-27	1	224	uncrossed	same	same	100	right	lower	right	lower	1	866	ses-1	978
sub-27	1	225	uncrossed	same	same	800	left	lower	left	lower	1	947	ses-1	979
sub-27	1	226	uncrossed	different	same	50	left	lower	right	lower	1	1297	ses-1	980
sub-27	1	227	uncrossed	same	same	300	right	lower	right	lower	1	1030	ses-1	981
sub-27	1	228	uncrossed	same	different	50	right	upper	right	lower	1	1137	ses-1	982
sub-27	1	229	uncrossed	same	different	800	left	upper	left	lower	1	1542	ses-1	983
sub-27	1	230	uncrossed	same	different	300	left	upper	left	lower	1	840	ses-1	984
sub-27	1	231	uncrossed	same	same	300	right	lower	right	lower	0	1141	ses-1	985
sub-27	1	232	uncrossed	same	different	50	left	upper	left	lower	1	1075	ses-1	986
sub-27	1	233	uncrossed	different	same	800	left	lower	right	lower	1	1116	ses-1	987
sub-27	1	234	uncrossed	different	same	50	right	lower	left	lower	1	1578	ses-1	988
sub-27	1	235	uncrossed	different	different	100	left	upper	right	lower	1	929	ses-1	989
sub-27	1	236	uncrossed	different	same	800	left	lower	right	lower	1	878	ses-1	990
sub-27	1	237	uncrossed	different	different	50	left	upper	right	lower	1	670	ses-1	991
sub-27	1	238	uncrossed	same	different	100	left	lower	left	upper	0	1222	ses-1	992
sub-27	1	239	uncrossed	same	different	100	right	lower	right	upper	1	1037	ses-1	993
sub-27	1	240	uncrossed	same	same	50	left	lower	left	lower	1	1074	ses-1	994
sub-27	1	241	uncrossed	different	different	800	right	upper	left	lower	0	303	ses-1	995
sub-27	1	242	uncrossed	different	same	50	left	lower	right	lower	1	1006	ses-1	996
sub-27	1	243	uncrossed	different	different	100	left	lower	right	upper	1	900	ses-1	997
sub-27	1	244	uncrossed	same	same	50	left	lower	left	lower	1	1555	ses-1	998
sub-27	1	245	uncrossed	different	different	50	left	lower	right	upper	1	860	ses-1	999
sub-27	1	246	uncrossed	different	different	800	right	lower	left	upper	0	842	ses-1	1000
sub-27	1	247	uncrossed	same	same	800	right	lower	right	lower	1	1136	ses-1	1001
sub-27	1	248	uncrossed	same	same	50	left	lower	left	lower	1	1384	ses-1	1002
sub-27	1	249	uncrossed	different	same	800	left	lower	right	lower	1	1178	ses-1	1003
sub-27	1	250	uncrossed	different	same	50	right	lower	left	lower	1	905	ses-1	1004
sub-27	1	251	uncrossed	different	different	800	left	lower	right	upper	1	962	ses-1	1005
sub-27	1	252	uncrossed	different	same	50	right	lower	left	lower	1	1557	ses-1	1006
sub-27	1	253	uncrossed	same	different	100	right	upper	right	lower	1	1105	ses-1	1007
sub-27	1	254	uncrossed	same	same	50	right	lower	right	lower	0	1076	ses-1	1008
sub-27	1	255	uncrossed	same	same	800	left	lower	left	lower	1	816	ses-1	1009
sub-27	1	256	uncrossed	same	different	50	left	lower	left	upper	1	1595	ses-1	1010
sub-27	1	257	uncrossed	different	different	50	right	lower	left	upper	1	1429	ses-1	1011
sub-27	1	258	uncrossed	same	different	100	left	upper	left	lower	0	802	ses-1	1012
sub-27	1	259	uncrossed	different	same	100	right	lower	left	lower	0	929	ses-1	1013
sub-27	1	260	uncrossed	different	different	800	left	upper	right	lower	1	1298	ses-1	1014
sub-27	1	261	uncrossed	different	different	300	right	upper	left	lower	1	865	ses-1	1015
sub-27	1	262	uncrossed	different	same	50	left	lower	right	lower	1	1087	ses-1	1016
sub-27	1	263	uncrossed	different	different	800	left	lower	right	upper	1	990	ses-1	1017
sub-27	1	266	uncrossed	different	different	300	left	lower	right	upper	1	867	ses-1	1018
sub-27	1	267	uncrossed	different	different	50	right	lower	left	upper	1	990	ses-1	1019
sub-27	1	268	uncrossed	same	different	300	left	upper	left	lower	1	957	ses-1	1020
sub-27	1	269	uncrossed	different	same	300	right	lower	left	lower	1	733	ses-1	1021
sub-27	1	270	uncrossed	same	different	100	left	lower	left	upper	0	1534	ses-1	1022
sub-27	1	271	uncrossed	different	same	50	left	lower	right	lower	1	1081	ses-1	1023
sub-27	1	272	uncrossed	different	same	800	right	lower	left	lower	1	887	ses-1	1024
sub-27	1	273	uncrossed	same	same	100	right	lower	right	lower	1	1544	ses-1	1025
sub-27	1	275	uncrossed	different	different	100	left	lower	right	upper	1	1054	ses-1	1026
sub-27	1	276	uncrossed	different	same	50	right	lower	left	lower	1	1222	ses-1	1027
sub-27	1	277	uncrossed	different	same	50	right	lower	left	lower	1	689	ses-1	1028
sub-27	1	278	uncrossed	same	different	100	left	upper	left	lower	1	1351	ses-1	1029
sub-27	1	279	uncrossed	same	same	50	right	lower	right	lower	1	1270	ses-1	1030
sub-27	1	280	uncrossed	different	same	300	left	lower	right	lower	1	1247	ses-1	1031
sub-27	1	281	uncrossed	different	different	50	right	upper	left	lower	1	751	ses-1	1032
sub-27	1	282	uncrossed	same	different	100	right	lower	right	upper	1	1114	ses-1	1033
sub-27	1	283	uncrossed	different	different	50	left	upper	right	lower	1	699	ses-1	1034
sub-27	1	284	uncrossed	same	different	300	left	lower	left	upper	1	607	ses-1	1035
sub-27	1	285	uncrossed	same	same	300	right	lower	right	lower	0	565	ses-1	1036
sub-27	1	286	uncrossed	different	same	300	left	lower	right	lower	1	628	ses-1	1037
sub-27	1	288	uncrossed	same	same	300	left	lower	left	lower	0	364	ses-1	1038
sub-27	1	290	uncrossed	same	different	100	right	upper	right	lower	1	839	ses-1	1039
sub-27	1	291	uncrossed	same	same	100	left	lower	left	lower	1	1021	ses-1	1040
sub-27	1	292	uncrossed	different	different	800	right	upper	left	lower	1	855	ses-1	1041
sub-27	1	293	uncrossed	different	different	800	left	lower	right	upper	1	1082	ses-1	1042
sub-27	1	294	uncrossed	same	different	100	left	upper	left	lower	1	906	ses-1	1043
sub-27	1	295	uncrossed	different	different	300	left	lower	right	upper	0	915	ses-1	1044
sub-27	1	296	uncrossed	same	same	100	right	lower	right	lower	1	1041	ses-1	1045
sub-27	1	297	uncrossed	different	different	50	left	lower	right	upper	1	1056	ses-1	1046
sub-27	1	298	uncrossed	different	same	100	left	lower	right	lower	1	552	ses-1	1047
sub-27	1	299	uncrossed	same	same	100	right	lower	right	lower	1	1195	ses-1	1048
sub-27	1	300	uncrossed	same	different	800	right	lower	right	upper	1	1625	ses-1	1049
sub-27	1	301	uncrossed	same	same	800	right	lower	right	lower	1	702	ses-1	1050
sub-27	1	302	uncrossed	different	same	50	left	lower	right	lower	1	1104	ses-1	1051
sub-27	1	303	uncrossed	same	same	800	right	lower	right	lower	1	951	ses-1	1052
sub-27	1	304	uncrossed	different	same	100	right	lower	left	lower	1	1196	ses-1	1053
sub-27	1	305	uncrossed	same	same	800	left	lower	left	lower	1	785	ses-1	1054
sub-27	1	306	uncrossed	different	same	100	left	lower	right	lower	1	882	ses-1	1055
sub-27	1	307	uncrossed	same	same	800	right	lower	right	lower	0	979	ses-1	1056
sub-27	1	308	uncrossed	different	different	300	right	upper	left	lower	1	1422	ses-1	1057
sub-27	1	309	uncrossed	same	same	100	right	lower	right	lower	1	1098	ses-1	1058
sub-27	1	310	uncrossed	same	different	800	left	lower	left	upper	1	1027	ses-1	1059
sub-27	1	311	uncrossed	same	same	800	left	lower	left	lower	1	750	ses-1	1060
sub-27	1	312	uncrossed	same	same	300	left	lower	left	lower	1	948	ses-1	1061
sub-27	1	313	uncrossed	same	different	100	right	lower	right	upper	1	794	ses-1	1062
sub-27	1	314	uncrossed	same	same	100	left	lower	left	lower	1	1152	ses-1	1063
sub-27	1	315	uncrossed	same	different	100	left	upper	left	lower	1	790	ses-1	1064
sub-27	1	316	uncrossed	different	same	100	left	lower	right	lower	1	485	ses-1	1065
sub-27	1	317	uncrossed	different	different	100	left	lower	right	upper	0	532	ses-1	1066
sub-27	1	319	uncrossed	same	same	50	right	lower	right	lower	0	1366	ses-1	1067
sub-27	1	320	uncrossed	same	same	300	left	lower	left	lower	1	1300	ses-1	1068
sub-27	1	321	uncrossed	same	same	300	left	lower	left	lower	1	818	ses-1	1069
sub-27	1	322	uncrossed	different	different	50	left	lower	right	upper	1	880	ses-1	1070
sub-27	1	323	uncrossed	same	same	300	right	lower	right	lower	1	662	ses-1	1071
sub-27	1	324	uncrossed	different	same	100	left	lower	right	lower	1	738	ses-1	1072
sub-27	1	325	uncrossed	same	different	50	left	upper	left	lower	1	871	ses-1	1073
sub-27	1	326	uncrossed	different	different	300	right	lower	left	upper	1	723	ses-1	1074
sub-27	1	327	uncrossed	different	same	50	left	lower	right	lower	1	873	ses-1	1075
sub-27	1	328	uncrossed	different	same	100	right	lower	left	lower	1	539	ses-1	1076
sub-27	1	329	uncrossed	different	different	100	right	upper	left	lower	0	865	ses-1	1077
sub-27	1	330	uncrossed	different	different	50	left	upper	right	lower	1	1019	ses-1	1078
sub-27	1	331	uncrossed	same	same	100	right	lower	right	lower	0	840	ses-1	1079
sub-27	1	332	uncrossed	different	different	100	right	upper	left	lower	1	644	ses-1	1080
sub-27	1	333	uncrossed	same	different	800	right	upper	right	lower	1	262	ses-1	1081
sub-27	1	334	uncrossed	different	same	300	right	lower	left	lower	1	1084	ses-1	1082
sub-27	1	335	uncrossed	different	same	300	right	lower	left	lower	0	799	ses-1	1083
sub-27	1	336	uncrossed	different	same	300	left	lower	right	lower	1	948	ses-1	1084
sub-27	1	337	uncrossed	same	different	300	right	lower	right	upper	1	790	ses-1	1085
sub-27	1	338	uncrossed	same	different	50	right	lower	right	upper	1	884	ses-1	1086
sub-27	1	339	uncrossed	different	different	100	right	upper	left	lower	1	888	ses-1	1087
sub-27	1	340	uncrossed	different	different	300	right	upper	left	lower	1	909	ses-1	1088
sub-27	1	341	uncrossed	different	same	300	right	lower	left	lower	1	703	ses-1	1089
sub-27	1	342	uncrossed	same	same	300	right	lower	right	lower	0	794	ses-1	1090
sub-27	1	343	uncrossed	different	same	300	right	lower	left	lower	1	839	ses-1	1091
sub-27	1	344	uncrossed	different	same	800	right	lower	left	lower	1	672	ses-1	1092
sub-27	1	346	uncrossed	same	different	100	left	upper	left	lower	0	1581	ses-1	1093
sub-27	1	347	uncrossed	same	different	50	left	upper	left	lower	0	934	ses-1	1094
sub-27	1	348	uncrossed	same	different	300	right	upper	right	lower	1	776	ses-1	1095
sub-27	1	349	uncrossed	different	different	800	left	upper	right	lower	1	842	ses-1	1096
sub-27	1	350	uncrossed	different	different	800	right	upper	left	lower	1	1527	ses-1	1097
sub-27	1	351	uncrossed	different	different	100	right	lower	left	upper	1	1051	ses-1	1098
sub-27	1	352	uncrossed	different	same	100	right	lower	left	lower	1	715	ses-1	1099
sub-27	1	353	uncrossed	different	same	800	left	lower	right	lower	0	857	ses-1	1100
sub-27	1	354	uncrossed	different	same	100	left	lower	right	lower	1	708	ses-1	1101
sub-27	1	355	uncrossed	same	different	800	right	upper	right	lower	1	1080	ses-1	1102
sub-27	1	356	uncrossed	different	same	800	right	lower	left	lower	1	1141	ses-1	1103
sub-27	1	357	uncrossed	same	same	800	left	lower	left	lower	1	95	ses-1	1104
sub-27	1	358	uncrossed	different	same	100	right	lower	left	lower	1	593	ses-1	1105
sub-27	1	360	uncrossed	same	different	50	left	lower	left	upper	1	1316	ses-1	1106
sub-27	1	361	uncrossed	same	same	300	right	lower	right	lower	0	905	ses-1	1107
sub-27	1	362	uncrossed	different	different	800	right	lower	left	upper	0	1535	ses-1	1108
sub-27	1	363	uncrossed	different	different	100	left	upper	right	lower	1	915	ses-1	1109
sub-27	1	364	uncrossed	same	same	50	left	lower	left	lower	0	798	ses-1	1110
sub-27	1	365	uncrossed	same	different	800	right	lower	right	upper	0	37	ses-1	1111
sub-27	1	366	uncrossed	same	same	50	right	lower	right	lower	1	1312	ses-1	1112
sub-27	1	368	uncrossed	different	same	800	left	lower	right	lower	1	216	ses-1	1113
sub-27	1	369	uncrossed	different	same	300	left	lower	right	lower	1	419	ses-1	1114
sub-27	1	370	uncrossed	different	same	800	left	lower	right	lower	1	356	ses-1	1115
sub-27	1	371	uncrossed	different	same	50	right	lower	left	lower	1	821	ses-1	1116
sub-27	1	372	uncrossed	same	different	50	right	lower	right	upper	0	617	ses-1	1117
sub-27	1	373	uncrossed	same	same	100	left	lower	left	lower	1	892	ses-1	1118
sub-27	1	374	uncrossed	different	same	300	left	lower	right	lower	0	935	ses-1	1119
sub-27	1	375	uncrossed	different	same	50	right	lower	left	lower	1	920	ses-1	1120
sub-27	1	376	uncrossed	different	same	50	right	lower	left	lower	1	254	ses-1	1121
sub-27	1	377	uncrossed	different	different	300	left	upper	right	lower	1	425	ses-1	1122
sub-27	1	378	uncrossed	same	same	100	left	lower	left	lower	0	540	ses-1	1123
sub-27	1	379	uncrossed	same	different	100	left	lower	left	upper	0	752	ses-1	1124
sub-27	1	380	uncrossed	same	different	50	left	lower	left	upper	0	439	ses-1	1125
sub-27	1	381	uncrossed	same	different	800	left	lower	left	upper	1	230	ses-1	1126
sub-27	1	382	uncrossed	different	same	300	left	lower	right	lower	1	773	ses-1	1127
sub-27	1	383	uncrossed	different	same	50	left	lower	right	lower	1	1506	ses-1	1128
sub-27	1	384	uncrossed	different	same	800	right	lower	left	lower	0	414	ses-1	1129
sub-27	1	385	uncrossed	different	same	100	right	lower	left	lower	0	1966	ses-1	1130
sub-27	1	386	uncrossed	same	different	300	right	upper	right	lower	1	808	ses-1	1131
sub-27	1	387	uncrossed	different	same	50	right	lower	left	lower	1	1449	ses-1	1132
sub-27	1	388	uncrossed	different	same	800	right	lower	left	lower	1	691	ses-1	1133
sub-27	1	389	uncrossed	different	same	800	right	lower	left	lower	1	629	ses-1	1134
sub-27	1	390	uncrossed	different	same	800	left	lower	right	lower	0	729	ses-1	1135
sub-27	1	391	uncrossed	same	different	300	right	upper	right	lower	1	847	ses-1	1136
sub-27	1	392	uncrossed	different	same	800	right	lower	left	lower	1	668	ses-1	1137
sub-27	1	393	uncrossed	different	different	300	left	upper	right	lower	1	860	ses-1	1138
sub-27	1	394	uncrossed	different	different	800	right	upper	left	lower	1	712	ses-1	1139
sub-27	1	395	uncrossed	same	different	300	right	lower	right	upper	1	684	ses-1	1140
sub-27	1	396	uncrossed	same	same	100	left	lower	left	lower	1	874	ses-1	1141
sub-27	1	397	uncrossed	same	same	800	right	lower	right	lower	1	577	ses-1	1142
sub-27	1	398	uncrossed	same	same	300	right	lower	right	lower	1	1196	ses-1	1143
sub-27	1	399	uncrossed	same	different	300	left	upper	left	lower	1	998	ses-1	1144
sub-27	1	400	uncrossed	same	different	800	left	upper	left	lower	1	552	ses-1	1145
sub-27	1	401	uncrossed	same	different	800	right	upper	right	lower	1	694	ses-1	1146
sub-27	1	402	uncrossed	same	different	100	left	lower	left	upper	1	478	ses-1	1147
sub-27	1	403	uncrossed	different	different	300	left	upper	right	lower	0	191	ses-1	1148
sub-27	1	404	uncrossed	different	same	800	left	lower	right	lower	0	392	ses-1	1149
sub-27	1	405	uncrossed	same	different	800	left	lower	left	upper	1	468	ses-1	1150
sub-27	1	406	uncrossed	same	different	800	left	upper	left	lower	1	736	ses-1	1151
sub-27	1	407	uncrossed	different	different	300	right	upper	left	lower	1	780	ses-1	1152
sub-27	2	1	uncrossed	different	different	800	right	upper	left	lower	1	687	ses-1	1153
sub-27	2	2	uncrossed	same	same	100	right	lower	right	lower	1	1117	ses-1	1154
sub-27	2	3	uncrossed	different	same	300	left	lower	right	lower	1	883	ses-1	1155
sub-27	2	4	uncrossed	same	same	800	right	lower	right	lower	1	711	ses-1	1156
sub-27	2	5	uncrossed	same	different	300	left	upper	left	lower	1	823	ses-1	1157
sub-27	2	6	uncrossed	different	different	800	left	upper	right	lower	1	709	ses-1	1158
sub-27	2	7	uncrossed	different	same	800	left	lower	right	lower	0	702	ses-1	1159
sub-27	2	8	uncrossed	same	different	100	left	lower	left	upper	1	1165	ses-1	1160
sub-27	2	9	uncrossed	different	same	300	left	lower	right	lower	1	895	ses-1	1161
sub-27	2	10	uncrossed	different	same	50	left	lower	right	lower	0	1020	ses-1	1162
sub-27	2	11	uncrossed	different	same	800	right	lower	left	lower	1	910	ses-1	1163
sub-27	2	12	uncrossed	same	same	800	left	lower	left	lower	0	640	ses-1	1164
sub-27	2	13	uncrossed	same	different	50	left	lower	left	upper	1	1135	ses-1	1165
sub-27	2	14	uncrossed	same	same	100	left	lower	left	lower	1	848	ses-1	1166
sub-27	2	15	uncrossed	same	same	800	left	lower	left	lower	1	796	ses-1	1167
sub-27	2	16	uncrossed	same	same	100	right	lower	right	lower	1	1252	ses-1	1168
sub-27	2	17	uncrossed	same	different	300	right	upper	right	lower	1	893	ses-1	1169
sub-27	2	18	uncrossed	different	same	50	right	lower	left	lower	0	1046	ses-1	1170
sub-27	2	19	uncrossed	same	different	300	right	lower	right	upper	1	1009	ses-1	1171
sub-27	2	20	uncrossed	different	same	300	right	lower	left	lower	1	1127	ses-1	1172
sub-27	2	21	uncrossed	same	same	50	left	lower	left	lower	1	884	ses-1	1173
sub-27	2	22	uncrossed	different	same	300	right	lower	left	lower	1	954	ses-1	1174
sub-27	2	23	uncrossed	different	same	100	right	lower	left	lower	1	759	ses-1	1175
sub-27	2	24	uncrossed	same	same	300	left	lower	left	lower	1	817	ses-1	1176
sub-27	2	25	uncrossed	different	different	800	right	upper	left	lower	1	753	ses-1	1177
sub-27	2	26	uncrossed	same	different	300	right	upper	right	lower	1	823	ses-1	1178
sub-27	2	27	uncrossed	same	same	800	right	lower	right	lower	1	966	ses-1	1179
sub-27	2	28	uncrossed	different	different	800	right	upper	left	lower	0	829	ses-1	1180
sub-27	2	29	uncrossed	same	different	300	left	upper	left	lower	1	843	ses-1	1181
sub-27	2	30	uncrossed	same	different	100	left	lower	left	upper	1	874	ses-1	1182
sub-27	2	31	uncrossed	different	different	100	right	lower	left	upper	1	881	ses-1	1183
sub-27	2	32	uncrossed	same	same	50	left	lower	left	lower	1	1193	ses-1	1184
sub-27	2	33	uncrossed	same	different	100	right	upper	right	lower	1	976	ses-1	1185
sub-27	2	34	uncrossed	different	different	800	right	upper	left	lower	1	835	ses-1	1186
sub-27	2	35	uncrossed	different	different	100	left	upper	right	lower	1	1083	ses-1	1187
sub-27	2	36	uncrossed	different	same	100	left	lower	right	lower	1	877	ses-1	1188
sub-27	2	37	uncrossed	same	different	300	right	upper	right	lower	0	1066	ses-1	1189
sub-27	2	38	uncrossed	same	same	50	left	lower	left	lower	1	840	ses-1	1190
sub-27	2	39	uncrossed	different	same	800	right	lower	left	lower	0	340	ses-1	1191
sub-27	2	40	uncrossed	different	same	800	right	lower	left	lower	0	593	ses-1	1192
sub-27	2	41	uncrossed	different	different	300	right	lower	left	upper	1	1149	ses-1	1193
sub-27	2	42	uncrossed	same	different	100	left	upper	left	lower	1	1026	ses-1	1194
sub-27	2	43	uncrossed	different	same	800	right	lower	left	lower	1	977	ses-1	1195
sub-27	2	44	uncrossed	different	different	50	right	upper	left	lower	1	1141	ses-1	1196
sub-27	2	45	uncrossed	different	same	300	right	lower	left	lower	1	951	ses-1	1197
sub-27	2	46	uncrossed	different	same	100	left	lower	right	lower	1	772	ses-1	1198
sub-27	2	47	uncrossed	same	different	100	right	lower	right	upper	1	985	ses-1	1199
sub-27	2	48	uncrossed	same	same	300	right	lower	right	lower	1	1013	ses-1	1200
sub-27	2	49	uncrossed	same	different	800	right	lower	right	upper	1	162	ses-1	1201
sub-27	2	50	uncrossed	same	different	300	left	lower	left	upper	1	619	ses-1	1202
sub-27	2	51	uncrossed	different	different	800	right	lower	left	upper	0	976	ses-1	1203
sub-27	2	52	uncrossed	different	different	800	left	upper	right	lower	1	952	ses-1	1204
sub-27	2	53	uncrossed	different	different	800	left	lower	right	upper	1	888	ses-1	1205
sub-27	2	54	uncrossed	same	different	50	left	lower	left	upper	1	1469	ses-1	1206
sub-27	2	55	uncrossed	different	different	100	left	upper	right	lower	1	860	ses-1	1207
sub-27	2	56	uncrossed	different	different	100	left	upper	right	lower	1	943	ses-1	1208
sub-27	2	57	uncrossed	same	same	300	right	lower	right	lower	0	923	ses-1	1209
sub-27	2	58	uncrossed	same	different	100	left	upper	left	lower	1	919	ses-1	1210
sub-27	2	59	uncrossed	same	different	100	left	lower	left	upper	0	722	ses-1	1211
sub-27	2	60	uncrossed	different	same	800	left	lower	right	lower	0	928	ses-1	1212
sub-27	2	61	uncrossed	same	same	50	left	lower	left	lower	0	858	ses-1	1213
sub-27	2	62	uncrossed	different	same	100	right	lower	left	lower	1	1085	ses-1	1214
sub-27	2	63	uncrossed	different	same	50	right	lower	left	lower	0	1050	ses-1	1215
sub-27	2	64	uncrossed	different	different	50	right	upper	left	lower	1	713	ses-1	1216
sub-27	2	65	uncrossed	same	same	50	left	lower	left	lower	0	985	ses-1	1217
sub-27	2	66	uncrossed	same	different	50	left	upper	left	lower	1	993	ses-1	1218
sub-27	2	67	uncrossed	same	same	50	left	lower	left	lower	1	789	ses-1	1219
sub-27	2	68	uncrossed	same	different	50	left	upper	left	lower	1	717	ses-1	1220
sub-27	2	69	uncrossed	different	different	50	right	lower	left	upper	1	711	ses-1	1221
sub-27	2	70	uncrossed	same	different	50	right	lower	right	upper	1	938	ses-1	1222
sub-27	2	71	uncrossed	different	different	800	left	upper	right	lower	1	770	ses-1	1223
sub-27	2	72	uncrossed	different	same	50	right	lower	left	lower	0	1040	ses-1	1224
sub-27	2	73	uncrossed	same	same	800	right	lower	right	lower	0	712	ses-1	1225
sub-27	2	74	uncrossed	different	same	50	left	lower	right	lower	1	960	ses-1	1226
sub-27	2	75	uncrossed	same	same	50	right	lower	right	lower	1	870	ses-1	1227
sub-27	2	76	uncrossed	same	different	50	right	upper	right	lower	1	858	ses-1	1228
sub-27	2	77	uncrossed	same	different	100	right	upper	right	lower	1	740	ses-1	1229
sub-27	2	78	uncrossed	different	different	100	left	lower	right	upper	1	875	ses-1	1230
sub-27	2	79	uncrossed	same	same	50	left	lower	left	lower	1	1535	ses-1	1231
sub-27	2	80	uncrossed	different	different	50	left	lower	right	upper	1	986	ses-1	1232
sub-27	2	81	uncrossed	different	different	50	left	lower	right	upper	1	1507	ses-1	1233
sub-27	2	82	uncrossed	same	same	300	left	lower	left	lower	1	697	ses-1	1234
sub-27	2	83	uncrossed	different	different	50	left	upper	right	lower	1	846	ses-1	1235
sub-27	2	84	uncrossed	same	same	800	right	lower	right	lower	1	718	ses-1	1236
sub-27	2	85	uncrossed	same	same	50	right	lower	right	lower	0	1231	ses-1	1237
sub-27	2	86	uncrossed	same	same	300	left	lower	left	lower	1	959	ses-1	1238
sub-27	2	87	uncrossed	same	different	100	left	upper	left	lower	1	644	ses-1	1239
sub-27	2	88	uncrossed	same	same	300	left	lower	left	lower	1	502	ses-1	1240
sub-27	2	89	uncrossed	same	same	100	right	lower	right	lower	1	844	ses-1	1241
sub-27	2	90	uncrossed	same	same	50	right	lower	right	lower	1	749	ses-1	1242
sub-27	2	91	uncrossed	different	same	300	right	lower	left	lower	1	686	ses-1	1243
sub-27	2	92	uncrossed	same	same	300	right	lower	right	lower	1	922	ses-1	1244
sub-27	2	93	uncrossed	different	same	800	right	lower	left	lower	1	910	ses-1	1245
sub-27	2	94	uncrossed	different	different	100	right	lower	left	upper	1	862	ses-1	1246
sub-27	2	95	uncrossed	same	same	100	left	lower	left	lower	1	821	ses-1	1247
sub-27	2	96	uncrossed	same	same	800	right	lower	right	lower	0	674	ses-1	1248
sub-27	2	97	uncrossed	same	different	300	right	upper	right	lower	1	902	ses-1	1249
sub-27	2	98	uncrossed	different	different	800	left	lower	right	upper	1	842	ses-1	1250
sub-27	2	99	uncrossed	different	same	300	right	lower	left	lower	1	843	ses-1	1251
sub-27	2	101	uncrossed	different	same	50	left	lower	right	lower	1	747	ses-1	1252
sub-27	2	102	uncrossed	same	different	50	left	lower	left	upper	1	1049	ses-1	1253
sub-27	2	103	uncrossed	same	same	300	right	lower	right	lower	1	882	ses-1	1254
sub-27	2	104	uncrossed	same	same	800	left	lower	left	lower	1	648	ses-1	1255
sub-27	2	105	uncrossed	different	same	300	right	lower	left	lower	1	730	ses-1	1256
