participant_id	run	trial_in_run	posture	stim_side	stim_segment	soa	tactor1side	tactor1segment	tactor2side	tactor2segment	response_correct	rt	session	trial
sub-021	1	1	crossed	different	same	800	right	lower	left	lower	1	724	ses-01	1
sub-021	1	3	crossed	different	different	100	left	upper	right	lower	0	662	ses-01	2
sub-021	1	4	crossed	same	different	100	right	lower	right	upper	0	644	ses-01	3
sub-021	1	5	crossed	different	same	100	right	lower	left	lower	1	848	ses-01	4
sub-021	1	6	crossed	different	different	50	left	lower	right	upper	0	883	ses-01	5
sub-021	1	8	crossed	different	same	800	left	lower	right	lower	1	951	ses-01	6
sub-021	1	9	crossed	different	same	50	right	lower	left	lower	0	831	ses-01	7
sub-021	1	10	crossed	different	same	300	left	lower	right	lower	1	761	ses-01	8
sub-021	1	11	crossed	different	different	300	right	upper	left	lower	0	655	ses-01	9
sub-021	1	12	crossed	different	same	100	left	lower	right	lower	1	908	ses-01	10
sub-021	1	14	crossed	different	same	100	left	lower	right	lower	1	1266	ses-01	11
sub-021	1	15	crossed	different	different	100	left	lower	right	upper	1	1224	ses-01	12
sub-021	1	16	crossed	same	same	300	left	lower	left	lower	1	777	ses-01	13
sub-021	1	17	crossed	different	same	300	right	lower	left	lower	1	807	ses-01	14
sub-021	1	18	crossed	same	different	800	left	upper	left	lower	1	621	ses-01	15
sub-021	1	19	crossed	different	different	300	right	upper	left	lower	1	983	ses-01	16
sub-021	1	20	crossed	different	different	100	left	upper	right	lower	0	1150	ses-01	17
sub-021	1	21	crossed	different	different	800	right	upper	left	lower	1	724	ses-01	18
sub-021	1	22	crossed	same	different	50	left	upper	left	lower	1	713	ses-01	19
sub-021	1	23	crossed	different	same	800	right	lower	left	lower	1	887	ses-01	20
sub-021	1	24	crossed	different	same	800	left	lower	right	lower	1	626	ses-01	21
sub-021	1	25	crossed	same	same	800	right	lower	right	lower	1	925	ses-01	22
sub-021	1	26	crossed	different	same	800	left	lower	right	lower	1	720	ses-01	23
sub-021	1	28	crossed	same	different	50	right	lower	right	upper	1	816	ses-01	24
sub-021	1	29	crossed	same	same	800	right	lower	right	lower	1	629	ses-01	25
sub-021	1	30	crossed	same	different	300	right	lower	right	upper	1	729	ses-01	26
sub-021	1	31	crossed	different	same	300	right	lower	left	lower	1	796	ses-01	27
sub-021	1	32	crossed	different	same	800	left	lower	right	lower	0	666	ses-01	28
sub-021	1	33	crossed	different	different	300	left	lower	right	upper	1	767	ses-01	29
sub-021	1	35	crossed	different	same	100	left	lower	right	lower	1	1487	ses-01	30
sub-021	1	36	crossed	same	same	50	right	lower	right	lower	1	776	ses-01	31
sub-021	1	37	crossed	same	different	50	left	upper	left	lower	1	767	ses-01	32
sub-021	1	38	crossed	same	different	300	left	upper	left	lower	1	702	ses-01	33
sub-021	1	39	crossed	different	same	300	left	lower	right	lower	1	642	ses-01	34
sub-021	1	40	crossed	different	same	50	right	lower	left	lower	0	694	ses-01	35
sub-021	1	41	crossed	same	different	50	right	upper	right	lower	1	906	ses-01	36
sub-021	1	42	crossed	same	same	50	left	lower	left	lower	1	845	ses-01	37
sub-021	1	43	crossed	same	different	50	right	upper	right	lower	1	779	ses-01	38
sub-021	1	44	crossed	same	different	100	left	lower	left	upper	1	895	ses-01	39
sub-021	1	46	crossed	different	different	50	left	upper	right	lower	1	1328	ses-01	40
sub-021	1	47	crossed	same	same	800	left	lower	left	lower	1	699	ses-01	41
sub-021	1	48	crossed	same	same	800	right	lower	right	lower	1	720	ses-01	42
sub-021	1	49	crossed	same	same	300	left	lower	left	lower	1	686	ses-01	43
sub-021	1	50	crossed	same	different	50	right	upper	right	lower	1	1116	ses-01	44
sub-021	1	51	crossed	different	different	800	right	upper	left	lower	1	512	ses-01	45
sub-021	1	52	crossed	same	same	300	left	lower	left	lower	1	657	ses-01	46
sub-021	1	53	crossed	same	same	800	right	lower	right	lower	1	631	ses-01	47
sub-021	1	54	crossed	same	same	300	right	lower	right	lower	1	618	ses-01	48
sub-021	1	55	crossed	different	same	50	left	lower	right	lower	1	740	ses-01	49
sub-021	1	56	crossed	same	different	100	right	upper	right	lower	1	478	ses-01	50
sub-021	1	57	crossed	different	different	50	right	upper	left	lower	1	767	ses-01	51
sub-021	1	58	crossed	same	different	100	right	upper	right	lower	1	712	ses-01	52
sub-021	1	59	crossed	same	same	800	left	lower	left	lower	1	699	ses-01	53
sub-021	1	60	crossed	same	same	300	left	lower	left	lower	1	837	ses-01	54
sub-021	1	61	crossed	different	same	300	left	lower	right	lower	1	519	ses-01	55
sub-021	1	62	crossed	different	same	50	right	lower	left	lower	1	840	ses-01	56
sub-021	1	63	crossed	same	different	800	left	lower	left	upper	1	692	ses-01	57
sub-021	1	64	crossed	different	different	800	right	upper	left	lower	1	698	ses-01	58
sub-021	1	65	crossed	same	same	50	right	lower	right	lower	1	1052	ses-01	59
sub-021	1	66	crossed	same	different	800	left	lower	left	upper	1	823	ses-01	60
sub-021	1	67	crossed	same	same	100	left	lower	left	lower	1	969	ses-01	61
sub-021	1	68	crossed	same	same	100	left	lower	left	lower	0	1096	ses-01	62
sub-021	1	69	crossed	different	different	100	left	lower	right	upper	1	830	ses-01	63
sub-021	1	70	crossed	same	same	50	left	lower	left	lower	1	1371	ses-01	64
sub-021	1	71	crossed	same	different	300	right	upper	right	lower	1	714	ses-01	65
sub-021	1	73	crossed	different	same	800	right	lower	left	lower	1	570	ses-01	66
sub-021	1	74	crossed	different	same	800	right	lower	left	lower	1	468	ses-01	67
sub-021	1	75	crossed	different	different	50	left	lower	right	upper	0	966	ses-01	68
sub-021	1	76	crossed	different	different	50	right	lower	left	upper	0	864	ses-01	69
sub-021	1	77	crossed	same	different	800	right	upper	right	lower	0	707	ses-01	70
sub-021	1	78	crossed	same	different	100	left	upper	left	lower	1	788	ses-01	71
sub-021	1	79	crossed	different	different	100	right	upper	left	lower	1	787	ses-01	72
sub-021	1	80	crossed	different	same	100	left	lower	right	lower	0	617	ses-01	73
sub-021	1	81	crossed	different	different	300	left	lower	right	upper	0	767	ses-01	74
sub-021	1	82	crossed	different	same	50	left	lower	right	lower	1	733	ses-01	75
sub-021	1	83	crossed	same	different	300	left	lower	left	upper	0	761	ses-01	76
sub-021	1	84	crossed	different	different	800	left	lower	right	upper	1	933	ses-01	77
sub-021	1	85	crossed	different	same	300	right	lower	left	lower	1	1025	ses-01	78
sub-021	1	86	crossed	different	same	100	right	lower	left	lower	0	647	ses-01	79
sub-021	1	87	crossed	same	same	300	right	lower	right	lower	0	740	ses-01	80
sub-021	1	88	crossed	different	different	50	right	lower	left	upper	0	780	ses-01	81
sub-021	1	89	crossed	same	different	100	right	upper	right	lower	1	997	ses-01	82
sub-021	1	90	crossed	different	same	100	right	lower	left	lower	0	973	ses-01	83
sub-021	1	91	crossed	different	same	800	right	lower	left	lower	1	847	ses-01	84
sub-021	1	92	crossed	different	same	100	left	lower	right	lower	0	886	ses-01	85
sub-021	1	93	crossed	different	different	100	left	upper	right	lower	1	1087	ses-01	86
sub-021	1	94	crossed	different	different	50	left	lower	right	upper	1	812	ses-01	87
sub-021	1	95	crossed	same	different	800	left	upper	left	lower	1	730	ses-01	88
sub-021	1	96	crossed	different	same	100	left	lower	right	lower	1	721	ses-01	89
sub-021	1	97	crossed	same	different	300	left	upper	left	lower	1	617	ses-01	90
sub-021	1	98	crossed	different	same	100	left	lower	right	lower	1	647	ses-01	91
sub-021	1	99	crossed	different	same	50	right	lower	left	lower	0	902	ses-01	92
sub-021	1	100	crossed	different	different	300	right	lower	left	upper	1	732	ses-01	93
sub-021	1	101	crossed	different	same	100	right	lower	left	lower	1	727	ses-01	94
sub-021	1	102	crossed	different	different	800	right	upper	left	lower	0	852	ses-01	95
sub-021	1	103	crossed	same	different	50	right	upper	right	lower	1	903	ses-01	96
sub-021	1	104	crossed	same	different	100	right	lower	right	upper	1	867	ses-01	97
sub-021	1	105	crossed	same	same	50	left	lower	left	lower	1	1117	ses-01	98
sub-021	1	106	crossed	same	same	100	right	lower	right	lower	1	1022	ses-01	99
sub-021	1	107	crossed	same	different	800	left	lower	left	upper	1	713	ses-01	100
sub-021	1	108	crossed	different	different	50	right	upper	left	lower	1	906	ses-01	101
sub-021	1	109	crossed	same	different	100	right	upper	right	lower	1	807	ses-01	102
sub-021	1	110	crossed	same	same	300	left	lower	left	lower	1	1095	ses-01	103
sub-021	1	111	crossed	same	same	50	right	lower	right	lower	1	1526	ses-01	104
sub-021	1	112	crossed	same	same	300	left	lower	left	lower	0	922	ses-01	105
sub-021	1	113	crossed	different	same	800	left	lower	right	lower	1	661	ses-01	106
sub-021	1	114	crossed	same	same	100	left	lower	left	lower	0	1075	ses-01	107
sub-021	1	115	crossed	same	different	50	right	lower	right	upper	1	539	ses-01	108
sub-021	1	116	crossed	same	different	100	right	lower	right	upper	1	662	ses-01	109
sub-021	1	117	crossed	same	same	800	right	lower	right	lower	1	784	ses-01	110
sub-021	1	118	crossed	different	same	50	left	lower	right	lower	1	949	ses-01	111
sub-021	1	119	crossed	same	same	800	left	lower	left	lower	0	821	ses-01	112
sub-021	1	120	crossed	same	different	300	right	lower	right	upper	1	705	ses-01	113
sub-021	1	121	crossed	different	different	50	left	upper	right	lower	0	905	ses-01	114
sub-021	1	122	crossed	same	different	100	right	upper	right	lower	1	685	ses-01	115
sub-021	1	123	crossed	different	same	100	right	lower	left	lower	1	711	ses-01	116
sub-021	1	124	crossed	different	different	800	left	lower	right	upper	1	683	ses-01	117
sub-021	1	125	crossed	different	different	300	right	upper	left	lower	1	1272	ses-01	118
sub-021	1	126	crossed	same	same	100	left	lower	left	lower	0	841	ses-01	119
sub-021	1	127	crossed	same	same	100	right	lower	right	lower	1	587	ses-01	120
sub-021	1	128	crossed	different	different	300	left	lower	right	upper	1	734	ses-01	121
sub-021	1	129	crossed	same	different	100	left	upper	left	lower	1	1020	ses-01	122
sub-021	1	131	crossed	different	same	300	left	lower	right	lower	1	659	ses-01	123
sub-021	1	132	crossed	same	same	50	right	lower	right	lower	1	550	ses-01	124
sub-021	1	133	crossed	different	different	100	right	upper	left	lower	1	773	ses-01	125
sub-021	1	134	crossed	different	different	800	left	lower	right	upper	0	755	ses-01	126
sub-021	1	135	crossed	different	different	800	left	upper	right	lower	1	901	ses-01	127
sub-021	1	136	crossed	same	different	800	right	lower	right	upper	1	456	ses-01	128
sub-021	1	137	crossed	same	different	50	left	lower	left	upper	1	1625	ses-01	129
sub-021	1	138	crossed	different	same	300	right	lower	left	lower	1	883	ses-01	130
sub-021	1	139	crossed	different	different	800	right	upper	left	lower	1	896	ses-01	131
sub-021	1	140	crossed	different	same	800	right	lower	left	lower	1	722	ses-01	132
sub-021	1	141	crossed	same	same	100	right	lower	right	lower	1	705	ses-01	133
sub-021	1	142	crossed	different	different	100	right	lower	left	upper	1	911	ses-01	134
sub-021	1	143	crossed	different	same	300	left	lower	right	lower	1	739	ses-01	135
sub-021	1	144	crossed	different	different	800	left	lower	right	upper	1	818	ses-01	136
sub-021	1	145	crossed	same	different	100	left	lower	left	upper	1	898	ses-01	137
sub-021	1	146	crossed	same	different	300	left	upper	left	lower	1	714	ses-01	138
sub-021	1	147	crossed	same	same	50	right	lower	right	lower	0	1039	ses-01	139
sub-021	1	148	crossed	different	different	300	right	lower	left	upper	1	679	ses-01	140
sub-021	1	149	crossed	different	different	50	right	lower	left	upper	1	875	ses-01	141
sub-021	1	150	crossed	same	different	300	right	upper	right	lower	1	822	ses-01	142
sub-021	1	151	crossed	same	different	50	right	lower	right	upper	1	659	ses-01	143
sub-021	1	152	crossed	different	same	100	right	lower	left	lower	1	763	ses-01	144
sub-021	1	153	crossed	different	different	50	left	upper	right	lower	1	666	ses-01	145
sub-021	1	154	crossed	same	same	300	left	lower	left	lower	0	768	ses-01	146
sub-021	1	155	crossed	different	same	800	right	lower	left	lower	1	604	ses-01	147
sub-021	1	156	crossed	different	different	300	right	lower	left	upper	1	903	ses-01	148
sub-021	1	157	crossed	different	different	800	right	lower	left	upper	1	765	ses-01	149
sub-021	1	158	crossed	same	same	100	left	lower	left	lower	0	827	ses-01	150
sub-021	1	159	crossed	different	same	300	left	lower	right	lower	1	1240	ses-01	151
sub-021	1	160	crossed	different	different	100	left	lower	right	upper	0	1018	ses-01	152
sub-021	1	162	crossed	different	different	50	left	upper	right	lower	1	1033	ses-01	153
sub-021	1	163	crossed	same	same	800	right	lower	right	lower	1	720	ses-01	154
sub-021	1	164	crossed	same	different	100	left	lower	left	upper	1	715	ses-01	155
sub-021	1	165	crossed	same	different	100	right	lower	right	upper	1	706	ses-01	156
sub-021	1	166	crossed	same	different	50	left	upper	left	lower	1	674	ses-01	157
sub-021	1	167	crossed	different	different	300	right	upper	left	lower	1	662	ses-01	158
sub-021	1	168	crossed	same	same	800	right	lower	right	lower	1	541	ses-01	159
sub-021	1	169	crossed	same	same	800	left	lower	left	lower	1	876	ses-01	160
sub-021	1	170	crossed	different	same	800	right	lower	left	lower	1	978	ses-01	161
sub-021	1	171	crossed	different	different	300	left	lower	right	upper	1	676	ses-01	162
sub-021	1	172	crossed	same	different	800	left	upper	left	lower	1	530	ses-01	163
sub-021	1	173	crossed	same	same	300	right	lower	right	lower	1	807	ses-01	164
sub-021	1	174	crossed	different	different	300	left	lower	right	upper	1	721	ses-01	165
sub-021	1	175	crossed	different	different	100	right	lower	left	upper	1	994	ses-01	166
sub-021	1	176	crossed	different	same	300	left	lower	right	lower	1	864	ses-01	167
sub-021	1	177	crossed	same	different	800	left	lower	left	upper	1	708	ses-01	168
sub-021	1	178	crossed	different	different	50	left	upper	right	lower	1	1011	ses-01	169
sub-021	1	179	crossed	same	same	300	right	lower	right	lower	1	944	ses-01	170
sub-021	1	180	crossed	same	same	100	left	lower	left	lower	1	769	ses-01	171
sub-021	1	181	crossed	different	same	100	right	lower	left	lower	1	723	ses-01	172
sub-021	1	182	crossed	different	same	50	right	lower	left	lower	1	663	ses-01	173
sub-021	1	183	crossed	same	different	800	right	lower	right	upper	0	803	ses-01	174
sub-021	1	184	crossed	different	different	100	left	lower	right	upper	1	696	ses-01	175
sub-021	1	185	crossed	same	different	100	left	upper	left	lower	1	829	ses-01	176
sub-021	1	186	crossed	same	same	100	right	lower	right	lower	1	748	ses-01	177
sub-021	1	187	crossed	different	different	100	left	lower	right	upper	1	714	ses-01	178
sub-021	1	188	crossed	different	same	50	left	lower	right	lower	0	938	ses-01	179
sub-021	1	189	crossed	same	same	300	left	lower	left	lower	1	943	ses-01	180
sub-021	1	190	crossed	different	different	50	left	lower	right	upper	1	565	ses-01	181
sub-021	1	191	crossed	same	same	50	right	lower	right	lower	1	711	ses-01	182
sub-021	1	192	crossed	same	different	300	right	upper	right	lower	1	792	ses-01	183
sub-021	1	193	crossed	same	different	300	left	lower	left	upper	1	672	ses-01	184
sub-021	1	194	crossed	same	different	50	right	upper	right	lower	1	643	ses-01	185
sub-021	1	195	crossed	same	different	800	right	upper	right	lower	1	709	ses-01	186
sub-021	1	196	crossed	same	same	300	right	lower	right	lower	1	639	ses-01	187
sub-021	1	197	crossed	different	different	800	left	upper	right	lower	0	709	ses-01	188
sub-021	1	198	crossed	same	same	800	left	lower	left	lower	0	796	ses-01	189
sub-021	1	199	crossed	different	different	300	left	upper	right	lower	1	1009	ses-01	190
sub-021	1	200	crossed	same	different	800	right	upper	right	lower	1	856	ses-01	191
sub-021	1	201	crossed	different	different	50	right	upper	left	lower	1	836	ses-01	192
sub-021	1	202	crossed	same	different	300	right	upper	right	lower	1	876	ses-01	193
sub-021	1	203	crossed	same	different	300	right	lower	right	upper	1	771	ses-01	194
sub-021	1	204	crossed	same	same	50	left	lower	left	lower	1	1583	ses-01	195
sub-021	1	205	crossed	same	different	100	left	lower	left	upper	1	823	ses-01	196
sub-021	1	206	crossed	different	same	800	right	lower	left	lower	1	838	ses-01	197
sub-021	1	207	crossed	different	same	800	left	lower	right	lower	1	634	ses-01	198
sub-021	1	208	crossed	same	same	800	left	lower	left	lower	1	810	ses-01	199
sub-021	1	209	crossed	different	same	100	left	lower	right	lower	1	719	ses-01	200
sub-021	1	210	crossed	same	same	300	right	lower	right	lower	1	789	ses-01	201
sub-021	1	211	crossed	same	same	50	left	lower	left	lower	1	843	ses-01	202
sub-021	1	212	crossed	different	different	100	right	lower	left	upper	1	711	ses-01	203
sub-021	1	213	crossed	same	different	300	left	upper	left	lower	1	720	ses-01	204
sub-021	1	214	crossed	different	different	300	left	upper	right	lower	1	709	ses-01	205
sub-021	1	215	crossed	different	different	50	left	lower	right	upper	0	1395	ses-01	206
sub-021	1	216	crossed	same	same	300	left	lower	left	lower	1	764	ses-01	207
sub-021	1	217	crossed	same	different	50	left	upper	left	lower	1	971	ses-01	208
sub-021	1	218	crossed	different	same	300	left	lower	right	lower	1	830	ses-01	209
sub-021	1	219	crossed	same	different	300	right	lower	right	upper	1	947	ses-01	210
sub-021	1	220	crossed	different	different	800	right	lower	left	upper	1	620	ses-01	211
sub-021	1	221	crossed	same	same	800	left	lower	left	lower	1	783	ses-01	212
sub-021	1	222	crossed	same	same	50	right	lower	right	lower	1	825	ses-01	213
sub-021	1	223	crossed	same	same	50	right	lower	right	lower	1	599	ses-01	214
sub-021	1	224	crossed	different	same	50	right	lower	left	lower	1	881	ses-01	215
sub-021	1	225	crossed	same	same	100	left	lower	left	lower	1	910	ses-01	216
sub-021	1	226	crossed	different	same	300	left	lower	right	lower	1	1018	ses-01	217
sub-021	1	227	crossed	different	same	300	right	lower	left	lower	1	799	ses-01	218
sub-021	1	228	crossed	different	same	300	right	lower	left	lower	1	726	ses-01	219
sub-021	1	229	crossed	different	different	100	left	upper	right	lower	1	763	ses-01	220
sub-021	1	230	crossed	different	same	50	left	lower	right	lower	1	1272	ses-01	221
sub-021	1	231	crossed	same	different	800	right	upper	right	lower	1	817	ses-01	222
sub-021	1	232	crossed	same	different	800	right	lower	right	upper	1	591	ses-01	223
sub-021	1	233	crossed	same	different	100	left	lower	left	upper	1	970	ses-01	224
sub-021	1	234	crossed	same	different	100	left	upper	left	lower	1	849	ses-01	225
sub-021	1	235	crossed	different	different	300	right	lower	left	upper	1	660	ses-01	226
sub-021	1	236	crossed	same	same	50	left	lower	left	lower	1	939	ses-01	227
sub-021	1	237	crossed	same	same	300	right	lower	right	lower	1	589	ses-01	228
sub-021	1	238	crossed	same	same	300	right	lower	right	lower	1	561	ses-01	229
sub-021	1	239	crossed	different	different	300	left	upper	right	lower	1	650	ses-01	230
sub-021	1	240	crossed	different	different	50	left	lower	right	upper	1	1139	ses-01	231
sub-021	1	241	crossed	same	same	800	right	lower	right	lower	0	860	ses-01	232
sub-021	1	242	crossed	same	same	50	left	lower	left	lower	1	749	ses-01	233
sub-021	1	243	crossed	different	different	50	right	upper	left	lower	1	796	ses-01	234
sub-021	1	244	crossed	different	same	50	left	lower	right	lower	1	1092	ses-01	235
sub-021	1	245	crossed	different	different	800	right	lower	left	upper	1	667	ses-01	236
sub-021	1	246	crossed	different	different	800	left	upper	right	lower	1	856	ses-01	237
sub-021	1	247	crossed	different	different	100	right	lower	left	upper	1	810	ses-01	238
sub-021	1	248	crossed	different	different	300	left	upper	right	lower	1	977	ses-01	239
sub-021	1	249	crossed	different	different	100	left	upper	right	lower	1	950	ses-01	240
sub-021	1	250	crossed	different	same	50	left	lower	right	lower	1	1121	ses-01	241
sub-021	1	251	crossed	same	different	100	right	lower	right	upper	1	670	ses-01	242
sub-021	1	252	crossed	different	same	800	right	lower	left	lower	1	620	ses-01	243
sub-021	1	253	crossed	same	same	800	right	lower	right	lower	1	677	ses-01	244
sub-021	1	254	crossed	different	different	100	right	upper	left	lower	1	805	ses-01	245
sub-021	1	255	crossed	different	different	800	left	upper	right	lower	1	869	ses-01	246
sub-021	1	256	crossed	same	same	50	left	lower	left	lower	1	803	ses-01	247
sub-021	1	257	crossed	different	different	800	right	lower	left	upper	1	665	ses-01	248
sub-021	1	258	crossed	different	same	800	right	lower	left	lower	1	647	ses-01	249
sub-021	1	259	crossed	different	same	300	right	lower	left	lower	1	749	ses-01	250
sub-021	1	260	crossed	different	same	800	left	lower	right	lower	1	759	ses-01	251
sub-021	1	261	crossed	same	same	100	left	lower	left	lower	1	760	ses-01	252
sub-021	1	262	crossed	same	same	300	right	lower	right	lower	1	714	ses-01	253
sub-021	1	263	crossed	same	different	800	left	lower	left	upper	1	699	ses-01	254
sub-021	1	264	crossed	same	different	300	left	upper	left	lower	1	663	ses-01	255
sub-021	1	265	crossed	same	different	50	right	lower	right	upper	1	688	ses-01	256
sub-021	1	266	crossed	different	different	100	right	upper	left	lower	1	731	ses-01	257
sub-021	1	267	crossed	same	same	800	left	lower	left	lower	1	618	ses-01	258
sub-021	1	268	crossed	same	same	800	left	lower	left	lower	1	606	ses-01	259
sub-021	1	269	crossed	same	same	300	left	lower	left	lower	1	630	ses-01	260
sub-021	1	270	crossed	same	different	800	left	upper	left	lower	1	837	ses-01	261
sub-021	1	271	crossed	different	same	800	left	lower	right	lower	1	690	ses-01	262
sub-021	1	272	crossed	different	same	800	left	lower	right	lower	1	836	ses-01	263
sub-021	1	273	crossed	same	different	50	left	lower	left	upper	1	1394	ses-01	264
sub-021	1	274	crossed	different	different	800	left	upper	right	lower	1	635	ses-01	265
sub-021	1	275	crossed	same	same	100	left	lower	left	lower	1	886	ses-01	266
sub-021	1	276	crossed	same	same	100	right	lower	right	lower	1	785	ses-01	267
sub-021	1	277	crossed	different	different	300	left	upper	right	lower	1	654	ses-01	268
sub-021	1	278	crossed	same	same	50	right	lower	right	lower	1	789	ses-01	269
sub-021	1	279	crossed	different	different	100	right	lower	left	upper	1	674	ses-01	270
sub-021	1	280	crossed	same	same	300	right	lower	right	lower	1	605	ses-01	271
sub-021	1	281	crossed	different	same	50	left	lower	right	lower	1	732	ses-01	272
sub-021	1	282	crossed	same	same	300	left	lower	left	lower	1	755	ses-01	273
sub-021	1	283	crossed	different	same	50	right	lower	left	lower	1	869	ses-01	274
sub-021	1	284	crossed	different	different	800	left	upper	right	lower	1	1214	ses-01	275
sub-021	1	285	crossed	same	different	100	left	upper	left	lower	1	959	ses-01	276
sub-021	1	286	crossed	same	different	100	right	lower	right	upper	1	875	ses-01	277
sub-021	1	287	crossed	same	different	300	right	upper	right	lower	1	627	ses-01	278
sub-021	1	288	crossed	same	different	800	right	lower	right	upper	1	522	ses-01	279
sub-021	1	289	crossed	same	different	50	right	upper	right	lower	1	718	ses-01	280
sub-021	1	290	crossed	different	same	100	right	lower	left	lower	1	699	ses-01	281
sub-021	1	291	crossed	same	different	300	left	lower	left	upper	1	753	ses-01	282
sub-021	1	292	crossed	same	same	50	left	lower	left	lower	1	808	ses-01	283
sub-021	1	293	crossed	same	different	800	left	upper	left	lower	1	755	ses-01	284
sub-021	1	294	crossed	different	different	50	left	upper	right	lower	1	851	ses-01	285
sub-021	1	295	crossed	different	different	50	right	upper	left	lower	1	1082	ses-01	286
sub-021	1	296	crossed	same	same	100	right	lower	right	lower	1	696	ses-01	287
sub-021	1	297	crossed	same	different	800	right	lower	right	upper	1	480	ses-01	288
sub-021	1	298	crossed	different	different	300	left	upper	right	lower	1	879	ses-01	289
sub-021	1	299	crossed	different	same	300	right	lower	left	lower	1	769	ses-01	290
sub-021	1	300	crossed	different	different	800	right	lower	left	upper	1	735	ses-01	291
sub-021	1	301	crossed	different	same	300	right	lower	left	lower	1	791	ses-01	292
sub-021	1	302	crossed	different	same	50	left	lower	right	lower	1	964	ses-01	293
sub-021	1	303	crossed	same	same	100	right	lower	right	lower	1	715	ses-01	294
sub-021	1	304	crossed	same	different	300	right	lower	right	upper	1	626	ses-01	295
sub-021	1	305	crossed	different	same	50	left	lower	right	lower	1	791	ses-01	296
sub-021	1	306	crossed	different	same	100	right	lower	left	lower	1	752	ses-01	297
sub-021	1	307	crossed	different	different	100	left	upper	right	lower	1	618	ses-01	298
sub-021	1	308	crossed	different	different	300	left	lower	right	upper	1	705	ses-01	299
sub-021	1	309	crossed	same	same	100	left	lower	left	lower	1	1053	ses-01	300
sub-021	1	310	crossed	same	same	50	left	lower	left	lower	1	796	ses-01	301
sub-021	1	311	crossed	same	different	50	left	lower	left	upper	1	720	ses-01	302
sub-021	1	312	crossed	same	different	300	left	lower	left	upper	1	620	ses-01	303
sub-021	1	313	crossed	same	same	100	right	lower	right	lower	1	645	ses-01	304
sub-021	1	314	crossed	same	different	100	left	upper	left	lower	1	720	ses-01	305
sub-021	1	315	crossed	different	same	50	right	lower	left	lower	1	796	ses-01	306
sub-021	1	316	crossed	same	same	50	right	lower	right	lower	1	690	ses-01	307
sub-021	1	317	crossed	same	different	100	left	lower	left	upper	1	625	ses-01	308
sub-021	1	318	crossed	different	same	50	left	lower	right	lower	1	666	ses-01	309
sub-021	1	319	crossed	different	same	50	right	lower	left	lower	1	806	ses-01	310
sub-021	1	320	crossed	different	different	800	left	lower	right	upper	1	1258	ses-01	311
sub-021	1	321	crossed	same	same	800	left	lower	left	lower	1	1094	ses-01	312
sub-021	1	322	crossed	same	same	100	right	lower	right	lower	1	600	ses-01	313
sub-021	1	323	crossed	different	same	300	right	lower	left	lower	1	1241	ses-01	314
sub-021	1	324	crossed	same	different	300	right	lower	right	upper	1	591	ses-01	315
sub-021	1	325	crossed	same	different	50	left	lower	left	upper	1	834	ses-01	316
sub-021	1	326	crossed	different	different	100	right	upper	left	lower	1	732	ses-01	317
sub-021	1	327	crossed	different	same	800	left	lower	right	lower	1	884	ses-01	318
sub-021	1	328	crossed	same	same	800	right	lower	right	lower	1	834	ses-01	319
sub-021	1	330	crossed	same	different	800	left	upper	left	lower	1	806	ses-01	320
sub-021	1	331	crossed	different	same	50	right	lower	left	lower	1	688	ses-01	321
sub-021	1	332	crossed	different	same	100	right	lower	left	lower	1	742	ses-01	322
sub-021	1	333	crossed	different	same	50	right	lower	left	lower	1	739	ses-01	323
sub-021	1	334	crossed	same	same	100	left	lower	left	lower	1	829	ses-01	324
sub-021	1	335	crossed	different	different	50	right	lower	left	upper	0	846	ses-01	325
sub-021	1	336	crossed	same	same	100	right	lower	right	lower	1	734	ses-01	326
sub-021	1	337	crossed	different	different	100	right	upper	left	lower	1	902	ses-01	327
sub-021	1	338	crossed	same	same	100	right	lower	right	lower	1	615	ses-01	328
sub-021	1	339	crossed	different	same	300	right	lower	left	lower	1	758	ses-01	329
sub-021	1	340	crossed	same	same	100	right	lower	right	lower	1	656	ses-01	330
sub-021	1	341	crossed	different	same	800	left	lower	right	lower	1	565	ses-01	331
sub-021	1	342	crossed	different	different	300	right	lower	left	upper	1	710	ses-01	332
sub-021	1	343	crossed	different	same	100	left	lower	right	lower	1	734	ses-01	333
sub-021	1	344	crossed	different	same	100	left	lower	right	lower	1	877	ses-01	334
sub-021	1	345	crossed	different	different	800	right	lower	left	upper	1	618	ses-01	335
sub-021	1	346	crossed	different	same	100	left	lower	right	lower	1	785	ses-01	336
sub-021	1	347	crossed	same	same	300	right	lower	right	lower	1	731	ses-01	337
sub-021	1	348	crossed	same	different	50	left	upper	left	lower	1	770	ses-01	338
sub-021	1	349	crossed	different	same	100	right	lower	left	lower	1	783	ses-01	339
sub-021	1	350	crossed	different	different	50	right	lower	left	upper	1	966	ses-01	340
sub-021	1	351	crossed	different	same	300	right	lower	left	lower	1	713	ses-01	341
sub-021	1	352	crossed	same	same	800	right	lower	right	lower	1	580	ses-01	342
sub-021	1	353	crossed	different	different	50	right	lower	left	upper	1	775	ses-01	343
sub-021	1	354	crossed	same	different	50	right	lower	right	upper	1	662	ses-01	344
sub-021	1	355	crossed	same	same	50	left	lower	left	lower	0	855	ses-01	345
sub-021	1	356	crossed	different	same	50	left	lower	right	lower	1	890	ses-01	346
sub-021	1	357	crossed	different	same	800	right	lower	left	lower	1	703	ses-01	347
sub-021	1	358	crossed	same	different	50	left	lower	left	upper	1	781	ses-01	348
sub-021	1	359	crossed	different	different	50	right	upper	left	lower	1	980	ses-01	349
sub-021	1	360	crossed	same	different	300	left	lower	left	upper	1	1001	ses-01	350
sub-021	1	361	crossed	same	different	50	left	lower	left	upper	1	1117	ses-01	351
sub-021	1	362	crossed	different	different	100	left	lower	right	upper	1	1232	ses-01	352
sub-021	1	363	crossed	same	same	300	left	lower	left	lower	1	730	ses-01	353
sub-021	1	364	crossed	same	different	100	right	upper	right	lower	1	723	ses-01	354
sub-021	1	365	crossed	different	different	100	right	lower	left	upper	1	885	ses-01	355
sub-021	1	366	crossed	different	different	300	right	upper	left	lower	1	725	ses-01	356
sub-021	1	367	crossed	same	different	50	left	upper	left	lower	1	1602	ses-01	357
sub-021	1	368	crossed	different	different	300	right	lower	left	upper	1	721	ses-01	358
sub-021	1	369	crossed	same	same	100	left	lower	left	lower	1	834	ses-01	359
sub-021	1	370	crossed	same	same	800	left	lower	left	lower	1	788	ses-01	360
sub-021	1	371	crossed	different	same	800	left	lower	right	lower	1	628	ses-01	361
sub-021	1	372	crossed	different	same	300	left	lower	right	lower	1	747	ses-01	362
sub-021	1	373	crossed	same	different	800	right	upper	right	lower	1	902	ses-01	363
sub-021	1	374	crossed	different	different	800	right	upper	left	lower	1	634	ses-01	364
sub-021	1	375	crossed	same	same	800	right	lower	right	lower	1	683	ses-01	365
sub-021	1	376	crossed	same	different	800	right	lower	right	upper	1	625	ses-01	366
sub-021	1	377	crossed	different	same	100	left	lower	right	lower	1	817	ses-01	367
sub-021	1	378	crossed	same	different	300	left	upper	left	lower	1	1012	ses-01	368
sub-021	1	379	crossed	same	different	50	right	lower	right	upper	1	762	ses-01	369
sub-021	1	380	crossed	different	different	800	left	lower	right	upper	1	678	ses-01	370
sub-021	1	381	crossed	different	same	100	right	lower	left	lower	1	737	ses-01	371
sub-021	1	382	crossed	different	same	300	left	lower	right	lower	1	738	ses-01	372
sub-021	1	383	crossed	different	different	300	right	upper	left	lower	1	761	ses-01	373
sub-021	1	384	crossed	different	same	300	left	lower	right	lower	1	739	ses-01	374
sub-021	1	385	crossed	same	same	50	left	lower	left	lower	1	1259	ses-01	375
sub-021	1	386	crossed	same	different	800	left	lower	left	upper	1	537	ses-01	376
sub-021	1	387	crossed	same	same	50	right	lower	right	lower	1	1139	ses-01	377
sub-021	1	388	crossed	same	different	800	right	upper	right	lower	1	678	ses-01	378
sub-021	1	389	crossed	same	different	300	left	lower	left	upper	1	834	ses-01	379
sub-021	1	390	crossed	same	different	300	right	upper	right	lower	1	639	ses-01	380
sub-021	1	391	crossed	same	same	300	right	lower	right	lower	1	610	ses-01	381
sub-021	1	392	crossed	different	same	50	right	lower	left	lower	1	1341	ses-01	382
sub-021	1	393	crossed	same	same	800	left	lower	left	lower	0	878	ses-01	383
sub-021	1	394	crossed	same	same	50	right	lower	right	lower	1	729	ses-01	384
sub-021	2	1	crossed	different	different	100	right	upper	left	lower	0	1554	ses-01	385
sub-021	2	2	crossed	same	different	50	right	lower	right	upper	1	582	ses-01	386
sub-021	2	3	crossed	same	different	300	right	lower	right	upper	1	750	ses-01	387
sub-021	2	4	crossed	different	same	800	left	lower	right	lower	0	710	ses-01	388
sub-021	2	5	crossed	different	same	800	right	lower	left	lower	0	655	ses-01	389
sub-021	2	6	crossed	different	different	300	right	upper	left	lower	1	755	ses-01	390
sub-021	2	7	crossed	different	same	50	left	lower	right	lower	1	1013	ses-01	391
sub-021	2	8	crossed	different	different	800	left	lower	right	upper	1	966	ses-01	392
sub-021	2	9	crossed	same	different	100	right	lower	right	upper	1	651	ses-01	393
sub-021	2	10	crossed	same	same	800	right	lower	right	lower	1	823	ses-01	394
sub-021	2	11	crossed	different	same	50	left	lower	right	lower	1	854	ses-01	395
sub-021	2	12	crossed	different	different	800	right	lower	left	upper	1	586	ses-01	396
sub-021	2	13	crossed	same	different	100	left	lower	left	upper	1	603	ses-01	397
sub-021	2	14	crossed	different	same	50	right	lower	left	lower	1	1083	ses-01	398
sub-021	2	15	crossed	same	same	300	left	lower	left	lower	1	498	ses-01	399
sub-021	2	16	crossed	same	different	50	right	upper	right	lower	1	633	ses-01	400
sub-021	2	17	crossed	same	different	100	right	lower	right	upper	1	604	ses-01	401
sub-021	2	18	crossed	same	same	50	left	lower	left	lower	1	649	ses-01	402
sub-021	2	19	crossed	same	different	100	left	upper	left	lower	1	579	ses-01	403
sub-021	2	20	crossed	different	same	800	left	lower	right	lower	1	676	ses-01	404
sub-021	2	21	crossed	same	different	800	left	lower	left	upper	1	712	ses-01	405
sub-021	2	22	crossed	same	different	50	right	upper	right	lower	1	609	ses-01	406
sub-021	2	23	crossed	same	same	50	right	lower	right	lower	1	649	ses-01	407
sub-021	2	24	crossed	same	same	50	left	lower	left	lower	1	776	ses-01	408
sub-021	2	25	crossed	same	same	300	left	lower	left	lower	1	844	ses-01	409
sub-021	2	26	crossed	different	same	50	left	lower	right	lower	1	934	ses-01	410
sub-021	2	28	crossed	same	same	800	left	lower	left	lower	1	554	ses-01	411
sub-021	2	29	crossed	same	different	300	left	upper	left	lower	1	686	ses-01	412
sub-021	2	30	crossed	different	same	800	left	lower	right	lower	1	694	ses-01	413
sub-021	2	31	crossed	different	different	100	left	upper	right	lower	1	865	ses-01	414
sub-021	2	32	crossed	same	different	300	right	lower	right	upper	1	893	ses-01	415
sub-021	2	33	crossed	same	same	800	left	lower	left	lower	1	764	ses-01	416
sub-021	2	34	crossed	different	same	50	left	lower	right	lower	1	798	ses-01	417
sub-021	2	35	crossed	different	different	100	right	upper	left	lower	1	944	ses-01	418
sub-021	2	36	crossed	different	different	800	left	lower	right	upper	1	661	ses-01	419
sub-021	2	37	crossed	different	different	100	right	upper	left	lower	1	942	ses-01	420
sub-021	2	38	crossed	same	different	300	left	lower	left	upper	1	633	ses-01	421
sub-021	2	39	crossed	same	same	800	left	lower	left	lower	1	587	ses-01	422
sub-021	2	40	crossed	same	different	100	left	lower	left	upper	1	642	ses-01	423
sub-021	2	41	crossed	same	different	50	right	upper	right	lower	1	693	ses-01	424
sub-021	2	42	crossed	same	same	100	left	lower	left	lower	1	782	ses-01	425
sub-021	2	43	crossed	same	same	100	left	lower	left	lower	1	686	ses-01	426
sub-021	2	44	crossed	different	different	50	left	lower	right	upper	1	1097	ses-01	427
sub-021	2	45	crossed	same	same	800	left	lower	left	lower	1	667	ses-01	428
sub-021	2	46	crossed	different	different	800	left	upper	right	lower	1	642	ses-01	429
sub-021	2	47	crossed	same	different	800	right	upper	right	lower	1	923	ses-01	430
sub-021	2	48	crossed	same	different	300	right	upper	right	lower	1	705	ses-01	431
sub-021	2	49	crossed	different	same	300	left	lower	right	lower	1	747	ses-01	432
sub-021	2	50	crossed	different	different	50	left	upper	right	lower	1	958	ses-01	433
sub-021	2	51	crossed	different	different	300	left	upper	right	lower	1	729	ses-01	434
sub-021	2	52	crossed	same	same	100	left	lower	left	lower	1	834	ses-01	435
sub-021	2	53	crossed	different	different	50	left	lower	right	upper	1	914	ses-01	436
sub-021	2	54	crossed	different	different	100	left	upper	right	lower	1	794	ses-01	437
sub-021	2	55	crossed	different	different	800	right	upper	left	lower	1	664	ses-01	438
sub-021	2	56	crossed	different	different	300	left	lower	right	upper	1	618	ses-01	439
sub-021	2	57	crossed	different	different	300	right	upper	left	lower	1	857	ses-01	440
sub-021	2	58	crossed	same	different	100	right	upper	right	lower	1	1000	ses-01	441
sub-021	2	59	crossed	different	same	300	left	lower	right	lower	1	866	ses-01	442
sub-021	2	60	crossed	same	different	300	right	lower	right	upper	1	630	ses-01	443
sub-021	2	61	crossed	different	different	50	right	lower	left	upper	1	675	ses-01	444
sub-021	2	62	crossed	same	different	50	left	upper	left	lower	0	746	ses-01	445
sub-021	2	63	crossed	same	same	800	right	lower	right	lower	1	512	ses-01	446
sub-021	2	64	crossed	different	different	300	right	upper	left	lower	1	683	ses-01	447
sub-021	2	65	crossed	different	different	800	left	upper	right	lower	1	674	ses-01	448
sub-021	2	66	crossed	same	same	800	left	lower	left	lower	1	573	ses-01	449
sub-021	2	67	crossed	different	same	100	right	lower	left	lower	1	823	ses-01	450
sub-021	2	68	crossed	different	same	100	right	lower	left	lower	1	1043	ses-01	451
sub-021	2	69	crossed	different	same	300	left	lower	right	lower	1	877	ses-01	452
sub-021	2	70	crossed	different	same	800	left	lower	right	lower	1	627	ses-01	453
sub-021	2	71	crossed	same	different	50	left	lower	left	upper	1	758	ses-01	454
sub-021	2	72	crossed	same	same	100	right	lower	right	lower	1	727	ses-01	455
sub-021	2	73	crossed	same	same	100	left	lower	left	lower	1	713	ses-01	456
sub-021	2	74	crossed	different	different	50	left	lower	right	upper	1	721	ses-01	457
sub-021	2	75	crossed	different	different	100	left	upper	right	lower	1	858	ses-01	458
sub-021	2	76	crossed	same	same	300	right	lower	right	lower	1	748	ses-01	459
sub-021	2	77	crossed	different	different	100	right	lower	left	upper	1	682	ses-01	460
sub-021	2	78	crossed	different	different	50	right	lower	left	upper	1	684	ses-01	461
sub-021	2	79	crossed	different	different	800	left	upper	right	lower	1	677	ses-01	462
sub-021	2	80	crossed	different	same	50	left	lower	right	lower	1	918	ses-01	463
sub-021	2	81	crossed	same	different	50	right	lower	right	upper	1	697	ses-01	464
sub-021	2	82	crossed	same	different	100	right	lower	right	upper	1	944	ses-01	465
sub-021	2	83	crossed	different	same	800	right	lower	left	lower	1	759	ses-01	466
sub-021	2	84	crossed	same	different	300	right	upper	right	lower	1	649	ses-01	467
sub-021	2	85	crossed	same	different	100	left	upper	left	lower	1	791	ses-01	468
sub-021	2	86	crossed	same	same	800	left	lower	left	lower	1	741	ses-01	469
sub-021	2	87	crossed	different	different	50	right	upper	left	lower	1	848	ses-01	470
sub-021	2	88	crossed	different	different	300	right	lower	left	upper	1	931	ses-01	471
sub-021	2	89	crossed	same	different	100	right	upper	right	lower	1	937	ses-01	472
sub-021	2	90	crossed	different	different	50	left	lower	right	upper	1	687	ses-01	473
sub-021	2	91	crossed	same	different	100	right	upper	right	lower	1	692	ses-01	474
sub-021	2	92	crossed	same	different	800	right	lower	right	upper	1	677	ses-01	475
sub-021	2	93	crossed	different	same	800	right	lower	left	lower	1	720	ses-01	476
sub-021	2	94	crossed	same	different	100	left	upper	left	lower	1	638	ses-01	477
sub-021	2	95	crossed	same	same	800	left	lower	left	lower	1	599	ses-01	478
sub-021	2	96	crossed	different	same	300	left	lower	right	lower	1	712	ses-01	479
sub-021	2	97	crossed	different	different	100	right	lower	left	upper	1	832	ses-01	480
sub-021	2	98	crossed	same	different	50	right	lower	right	upper	1	542	ses-01	481
sub-021	2	99	crossed	different	different	100	right	lower	left	upper	1	658	ses-01	482
sub-021	2	100	crossed	different	different	100	left	upper	right	lower	1	598	ses-01	483
sub-021	2	101	crossed	same	different	50	left	upper	left	lower	0	975	ses-01	484
sub-021	2	102	crossed	different	same	50	left	lower	right	lower	1	969	ses-01	485
sub-021	2	103	crossed	same	different	800	left	upper	left	lower	1	568	ses-01	486
sub-021	2	104	crossed	same	same	300	left	lower	left	lower	1	751	ses-01	487
sub-021	2	105	crossed	same	same	800	left	lower	left	lower	1	565	ses-01	488
sub-021	2	106	crossed	different	same	100	left	lower	right	lower	1	855	ses-01	489
sub-021	2	107	crossed	different	different	100	left	lower	right	upper	1	1095	ses-01	490
sub-021	2	108	crossed	different	different	800	right	lower	left	upper	1	298	ses-01	491
sub-021	2	109	crossed	same	same	800	left	lower	left	lower	1	574	ses-01	492
sub-021	2	110	crossed	different	different	800	left	upper	right	lower	1	610	ses-01	493
sub-021	2	111	crossed	same	different	50	right	upper	right	lower	1	738	ses-01	494
sub-021	2	112	crossed	different	different	300	left	lower	right	upper	1	634	ses-01	495
sub-021	2	113	crossed	different	different	50	left	upper	right	lower	1	860	ses-01	496
sub-021	2	114	crossed	same	same	300	right	lower	right	lower	1	646	ses-01	497
sub-021	2	115	crossed	different	different	100	right	upper	left	lower	1	673	ses-01	498
sub-021	2	116	crossed	same	different	50	right	lower	right	upper	1	665	ses-01	499
sub-021	2	117	crossed	same	different	800	left	upper	left	lower	1	783	ses-01	500
sub-021	2	118	crossed	different	same	100	right	lower	left	lower	1	975	ses-01	501
sub-021	2	119	crossed	different	same	50	right	lower	left	lower	1	686	ses-01	502
sub-021	2	120	crossed	different	same	800	left	lower	right	lower	1	734	ses-01	503
sub-021	2	121	crossed	same	same	800	left	lower	left	lower	1	819	ses-01	504
sub-021	2	122	crossed	same	same	50	left	lower	left	lower	1	700	ses-01	505
sub-021	2	123	crossed	same	same	800	left	lower	left	lower	1	600	ses-01	506
sub-021	2	124	crossed	same	same	50	right	lower	right	lower	1	860	ses-01	507
sub-021	2	125	crossed	same	same	100	left	lower	left	lower	1	778	ses-01	508
sub-021	2	126	crossed	different	different	100	right	upper	left	lower	1	766	ses-01	509
sub-021	2	127	crossed	different	same	300	right	lower	left	lower	1	729	ses-01	510
sub-021	2	128	crossed	different	different	300	right	lower	left	upper	1	760	ses-01	511
sub-021	2	129	crossed	different	same	300	left	lower	right	lower	1	760	ses-01	512
sub-021	2	130	crossed	different	different	300	right	upper	left	lower	1	723	ses-01	513
sub-021	2	131	crossed	same	different	800	left	lower	left	upper	1	1124	ses-01	514
sub-021	2	132	crossed	same	same	800	right	lower	right	lower	1	876	ses-01	515
sub-021	2	133	crossed	same	different	300	left	upper	left	lower	1	672	ses-01	516
sub-021	2	134	crossed	different	different	800	left	lower	right	upper	1	632	ses-01	517
sub-021	2	135	crossed	same	different	100	left	lower	left	upper	1	828	ses-01	518
sub-021	2	136	crossed	different	same	100	left	lower	right	lower	1	902	ses-01	519
sub-021	2	137	crossed	same	different	300	right	lower	right	upper	1	1611	ses-01	520
sub-021	2	138	crossed	same	same	300	right	lower	right	lower	1	840	ses-01	521
sub-021	2	139	crossed	different	same	300	right	lower	left	lower	1	1034	ses-01	522
sub-021	2	140	crossed	same	same	50	left	lower	left	lower	1	768	ses-01	523
sub-021	2	141	crossed	same	different	300	left	lower	left	upper	1	701	ses-01	524
sub-021	2	142	crossed	different	different	100	left	lower	right	upper	1	795	ses-01	525
sub-021	2	143	crossed	different	same	100	left	lower	right	lower	1	783	ses-01	526
sub-021	2	144	crossed	different	same	50	right	lower	left	lower	0	845	ses-01	527
sub-021	2	145	crossed	same	same	50	left	lower	left	lower	1	641	ses-01	528
sub-021	2	146	crossed	same	same	50	right	lower	right	lower	1	787	ses-01	529
sub-021	2	147	crossed	same	same	50	right	lower	right	lower	1	548	ses-01	530
sub-021	2	148	crossed	different	different	300	right	lower	left	upper	1	813	ses-01	531
sub-021	2	149	crossed	different	different	300	left	upper	right	lower	1	1058	ses-01	532
sub-021	2	150	crossed	different	different	50	right	upper	left	lower	1	1096	ses-01	533
sub-021	2	151	crossed	different	different	800	right	upper	left	lower	1	667	ses-01	534
sub-021	2	152	crossed	same	same	800	right	lower	right	lower	1	630	ses-01	535
sub-021	2	153	crossed	different	different	50	right	lower	left	upper	1	749	ses-01	536
sub-021	2	154	crossed	different	same	100	left	lower	right	lower	1	771	ses-01	537
sub-021	2	155	crossed	same	different	800	right	upper	right	lower	1	790	ses-01	538
sub-021	2	156	crossed	different	different	300	right	lower	left	upper	1	692	ses-01	539
sub-021	2	157	crossed	same	same	50	left	lower	left	lower	0	683	ses-01	540
sub-021	2	158	crossed	different	same	800	right	lower	left	lower	1	584	ses-01	541
sub-021	2	159	crossed	different	same	50	right	lower	left	lower	1	753	ses-01	542
sub-021	2	160	crossed	same	different	50	left	upper	left	lower	1	974	ses-01	543
sub-021	2	161	crossed	different	same	300	right	lower	left	lower	1	715	ses-01	544
sub-021	2	162	crossed	different	same	100	left	lower	right	lower	1	757	ses-01	545
sub-021	2	163	crossed	same	different	800	left	upper	left	lower	1	652	ses-01	546
sub-021	2	164	crossed	different	different	800	right	lower	left	upper	1	666	ses-01	547
sub-021	2	165	crossed	different	same	300	left	lower	right	lower	1	824	ses-01	548
sub-021	2	166	crossed	different	same	300	right	lower	left	lower	1	934	ses-01	549
sub-021	2	167	crossed	different	same	50	right	lower	left	lower	1	1103	ses-01	550
sub-021	2	168	crossed	same	different	800	left	lower	left	upper	1	635	ses-01	551
sub-021	2	169	crossed	same	same	800	right	lower	right	lower	1	649	ses-01	552
sub-021	2	170	crossed	different	same	100	left	lower	right	lower	1	777	ses-01	553
sub-021	2	171	crossed	same	different	300	left	upper	left	lower	1	1335	ses-01	554
sub-021	2	172	crossed	different	same	100	right	lower	left	lower	1	868	ses-01	555
sub-021	2	173	crossed	different	same	100	left	lower	right	lower	1	867	ses-01	556
sub-021	2	174	crossed	same	same	100	right	lower	right	lower	1	627	ses-01	557
sub-021	2	175	crossed	different	different	50	right	upper	left	lower	1	602	ses-01	558
sub-021	2	176	crossed	same	same	300	left	lower	left	lower	1	801	ses-01	559
sub-021	2	177	crossed	same	same	300	left	lower	left	lower	1	703	ses-01	560
sub-021	2	178	crossed	same	same	50	right	lower	right	lower	1	842	ses-01	561
sub-021	2	179	crossed	different	different	800	right	upper	left	lower	1	832	ses-01	562
sub-021	2	180	crossed	same	different	100	right	lower	right	upper	1	636	ses-01	563
sub-021	2	181	crossed	different	different	800	right	lower	left	upper	1	547	ses-01	564
sub-021	2	182	crossed	different	same	100	right	lower	left	lower	1	693	ses-01	565
sub-021	2	183	crossed	different	different	300	left	upper	right	lower	1	825	ses-01	566
sub-021	2	184	crossed	different	same	100	left	lower	right	lower	1	681	ses-01	567
sub-021	2	185	crossed	same	same	100	right	lower	right	lower	1	700	ses-01	568
sub-021	2	186	crossed	same	same	800	right	lower	right	lower	1	524	ses-01	569
sub-021	2	187	crossed	same	same	50	left	lower	left	lower	0	1759	ses-01	570
sub-021	2	188	crossed	different	different	50	left	upper	right	lower	1	679	ses-01	571
sub-021	2	189	crossed	same	different	800	right	lower	right	upper	1	576	ses-01	572
sub-021	2	190	crossed	same	different	300	left	upper	left	lower	1	922	ses-01	573
sub-021	2	191	crossed	same	same	800	right	lower	right	lower	1	547	ses-01	574
sub-021	2	192	crossed	same	same	300	left	lower	left	lower	1	769	ses-01	575
sub-021	2	193	crossed	different	same	300	right	lower	left	lower	1	979	ses-01	576
sub-021	2	194	crossed	same	same	100	left	lower	left	lower	1	619	ses-01	577
sub-021	2	195	crossed	same	different	100	left	lower	left	upper	1	533	ses-01	578
sub-021	2	196	crossed	different	same	100	right	lower	left	lower	1	959	ses-01	579
sub-021	2	197	crossed	different	different	800	right	upper	left	lower	1	620	ses-01	580
sub-021	2	198	crossed	different	same	800	right	lower	left	lower	0	626	ses-01	581
sub-021	2	199	crossed	same	same	50	left	lower	left	lower	1	765	ses-01	582
sub-021	2	200	crossed	same	different	800	left	upper	left	lower	1	542	ses-01	583
sub-021	2	201	crossed	same	same	100	left	lower	left	lower	1	546	ses-01	584
sub-021	2	202	crossed	same	different	300	right	upper	right	lower	1	510	ses-01	585
sub-021	2	203	crossed	different	different	800	right	upper	left	lower	1	637	ses-01	586
sub-021	2	204	crossed	same	same	300	left	lower	left	lower	1	666	ses-01	587
sub-021	2	205	crossed	same	different	100	left	lower	left	upper	1	662	ses-01	588
sub-021	2	206	crossed	same	same	50	right	lower	right	lower	1	648	ses-01	589
sub-021	2	207	crossed	different	different	50	left	lower	right	upper	1	787	ses-01	590
sub-021	2	208	crossed	same	same	50	right	lower	right	lower	1	705	ses-01	591
sub-021	2	209	crossed	same	same	100	right	lower	right	lower	1	549	ses-01	592
sub-021	2	210	crossed	same	different	800	right	upper	right	lower	1	777	ses-01	593
sub-021	2	211	crossed	different	same	800	left	lower	right	lower	1	791	ses-01	594
sub-021	2	212	crossed	different	different	100	right	lower	left	upper	1	884	ses-01	595
sub-021	2	213	crossed	same	same	100	right	lower	right	lower	1	707	ses-01	596
sub-021	2	214	crossed	same	different	100	right	upper	right	lower	1	1207	ses-01	597
sub-021	2	215	crossed	different	same	300	left	lower	right	lower	1	943	ses-01	598
sub-021	2	216	crossed	different	different	800	left	upper	right	lower	0	685	ses-01	599
sub-021	2	217	crossed	same	same	300	left	lower	left	lower	1	535	ses-01	600
sub-021	2	218	crossed	different	different	300	left	upper	right	lower	1	620	ses-01	601
sub-021	2	219	crossed	different	same	300	right	lower	left	lower	1	603	ses-01	602
sub-021	2	220	crossed	different	same	300	right	lower	left	lower	1	754	ses-01	603
sub-021	2	221	crossed	same	different	100	left	upper	left	lower	1	842	ses-01	604
sub-021	2	222	crossed	same	same	300	left	lower	left	lower	1	510	ses-01	605
sub-021	2	223	crossed	same	same	100	right	lower	right	lower	1	638	ses-01	606
sub-021	2	224	crossed	different	same	100	right	lower	left	lower	1	720	ses-01	607
sub-021	2	225	crossed	different	same	100	left	lower	right	lower	1	842	ses-01	608
sub-021	2	226	crossed	same	same	800	left	lower	left	lower	1	1001	ses-01	609
sub-021	2	227	crossed	different	same	50	left	lower	right	lower	1	714	ses-01	610
sub-021	2	228	crossed	different	same	50	right	lower	left	lower	1	864	ses-01	611
sub-021	2	229	crossed	same	different	50	left	upper	left	lower	1	706	ses-01	612
sub-021	2	230	crossed	different	same	50	right	lower	left	lower	1	662	ses-01	613
sub-021	2	231	crossed	different	same	800	right	lower	left	lower	1	657	ses-01	614
sub-021	2	232	crossed	same	different	50	right	lower	right	upper	1	666	ses-01	615
sub-021	2	233	crossed	same	different	50	right	upper	right	lower	1	541	ses-01	616
sub-021	2	234	crossed	different	different	300	left	lower	right	upper	1	685	ses-01	617
sub-021	2	235	crossed	same	different	300	right	lower	right	upper	1	530	ses-01	618
sub-021	2	236	crossed	different	different	100	right	upper	left	lower	1	625	ses-01	619
sub-021	2	237	crossed	same	different	300	left	upper	left	lower	1	694	ses-01	620
sub-021	2	238	crossed	different	different	300	left	upper	right	lower	1	580	ses-01	621
sub-021	2	239	crossed	same	different	300	left	lower	left	upper	1	663	ses-01	622
sub-021	2	240	crossed	same	same	800	right	lower	right	lower	1	614	ses-01	623
sub-021	2	241	crossed	different	different	100	left	lower	right	upper	1	950	ses-01	624
sub-021	2	242	crossed	same	same	800	right	lower	right	lower	1	449	ses-01	625
sub-021	2	243	crossed	same	same	800	right	lower	right	lower	1	546	ses-01	626
sub-021	2	244	crossed	same	different	800	right	lower	right	upper	1	582	ses-01	627
sub-021	2	245	crossed	different	same	100	left	lower	right	lower	1	669	ses-01	628
sub-021	2	246	crossed	different	same	300	right	lower	left	lower	1	669	ses-01	629
sub-021	2	247	crossed	different	different	300	right	lower	left	upper	1	606	ses-01	630
sub-021	2	248	crossed	same	same	100	right	lower	right	lower	1	678	ses-01	631
sub-021	2	249	crossed	different	different	300	right	lower	left	upper	1	628	ses-01	632
sub-021	2	250	crossed	same	same	100	right	lower	right	lower	1	566	ses-01	633
sub-021	2	251	crossed	different	different	100	left	upper	right	lower	1	765	ses-01	634
sub-021	2	252	crossed	different	same	800	right	lower	left	lower	1	602	ses-01	635
sub-021	2	253	crossed	same	different	100	left	upper	left	lower	0	931	ses-01	636
sub-021	2	254	crossed	different	same	50	right	lower	left	lower	1	767	ses-01	637
sub-021	2	255	crossed	same	same	50	right	lower	right	lower	1	752	ses-01	638
sub-021	2	256	crossed	different	same	300	right	lower	left	lower	1	645	ses-01	639
sub-021	2	257	crossed	different	different	300	left	upper	right	lower	1	757	ses-01	640
sub-021	2	258	crossed	same	different	300	right	upper	right	lower	1	576	ses-01	641
sub-021	2	259	crossed	different	same	50	right	lower	left	lower	1	647	ses-01	642
sub-021	2	260	crossed	same	different	800	right	upper	right	lower	1	536	ses-01	643
sub-021	2	261	crossed	same	different	800	left	lower	left	upper	1	584	ses-01	644
sub-021	2	262	crossed	different	different	800	right	upper	left	lower	1	677	ses-01	645
sub-021	2	263	crossed	different	different	50	left	lower	right	upper	1	900	ses-01	646
sub-021	2	264	crossed	different	same	800	left	lower	right	lower	1	559	ses-01	647
sub-021	2	265	crossed	same	different	50	right	upper	right	lower	1	703	ses-01	648
sub-021	2	266	crossed	same	different	100	right	upper	right	lower	1	773	ses-01	649
sub-021	2	267	crossed	same	different	300	left	lower	left	upper	1	709	ses-01	650
sub-021	2	268	crossed	different	same	100	right	lower	left	lower	1	723	ses-01	651
sub-021	2	269	crossed	same	same	800	right	lower	right	lower	1	667	ses-01	652
sub-021	2	270	crossed	same	same	100	left	lower	left	lower	1	791	ses-01	653
sub-021	2	271	crossed	different	same	300	left	lower	right	lower	1	992	ses-01	654
sub-021	2	272	crossed	different	different	300	left	lower	right	upper	1	920	ses-01	655
sub-021	2	273	crossed	different	same	800	right	lower	left	lower	1	620	ses-01	656
sub-021	2	274	crossed	same	same	300	right	lower	right	lower	1	836	ses-01	657
sub-021	2	275	crossed	same	same	300	right	lower	right	lower	1	743	ses-01	658
sub-021	2	276	crossed	different	same	800	right	lower	left	lower	1	670	ses-01	659
sub-021	2	277	crossed	different	different	50	right	upper	left	lower	0	968	ses-01	660
sub-021	2	278	crossed	same	different	50	left	lower	left	upper	1	955	ses-01	661
sub-021	2	279	crossed	same	different	50	left	upper	left	lower	1	796	ses-01	662
sub-021	2	280	crossed	different	different	800	right	lower	left	upper	1	904	ses-01	663
sub-021	2	281	crossed	different	same	800	left	lower	right	lower	1	1723	ses-01	664
sub-021	2	282	crossed	same	different	300	right	upper	right	lower	1	590	ses-01	665
sub-021	2	283	crossed	different	same	300	right	lower	left	lower	1	592	ses-01	666
sub-021	2	284	crossed	different	same	100	right	lower	left	lower	1	655	ses-01	667
sub-021	2	285	crossed	same	different	50	left	lower	left	upper	1	793	ses-01	668
sub-021	2	286	crossed	different	same	50	left	lower	right	lower	1	839	ses-01	669
sub-021	2	287	crossed	different	different	50	right	upper	left	lower	1	1004	ses-01	670
sub-021	2	288	crossed	different	same	100	left	lower	right	lower	1	667	ses-01	671
sub-021	2	289	crossed	different	same	50	left	lower	right	lower	1	684	ses-01	672
sub-021	2	290	crossed	different	same	300	right	lower	left	lower	1	597	ses-01	673
sub-021	2	291	crossed	same	different	100	left	lower	left	upper	1	921	ses-01	674
sub-021	2	292	crossed	same	different	100	right	lower	right	upper	1	560	ses-01	675
sub-021	2	293	crossed	same	same	50	left	lower	left	lower	1	595	ses-01	676
sub-021	2	294	crossed	same	different	800	right	upper	right	lower	1	584	ses-01	677
sub-021	2	295	crossed	different	different	100	right	lower	left	upper	1	644	ses-01	678
sub-021	2	296	crossed	same	same	300	left	lower	left	lower	1	894	ses-01	679
sub-021	2	297	crossed	different	same	100	left	lower	right	lower	1	1011	ses-01	680
sub-021	2	298	crossed	different	different	800	right	lower	left	upper	1	804	ses-01	681
sub-021	2	299	crossed	same	different	300	left	lower	left	upper	1	657	ses-01	682
sub-021	2	300	crossed	same	same	100	right	lower	right	lower	0	714	ses-01	683
sub-021	2	301	crossed	same	same	300	right	lower	right	lower	1	555	ses-01	684
sub-021	2	302	crossed	same	same	300	right	lower	right	lower	1	526	ses-01	685
sub-021	2	303	crossed	same	different	100	left	upper	left	lower	1	786	ses-01	686
sub-021	2	304	crossed	different	same	100	right	lower	left	lower	1	776	ses-01	687
sub-021	2	305	crossed	same	different	50	right	lower	right	upper	1	706	ses-01	688
sub-021	2	306	crossed	different	same	50	right	lower	left	lower	1	731	ses-01	689
sub-021	2	307	crossed	same	different	800	left	lower	left	upper	1	667	ses-01	690
sub-021	2	308	crossed	same	same	300	right	lower	right	lower	1	796	ses-01	691
sub-021	2	309	crossed	different	same	300	left	lower	right	lower	1	600	ses-01	692
sub-021	2	310	crossed	same	same	50	left	lower	left	lower	0	1601	ses-01	693
sub-021	2	311	crossed	different	same	50	right	lower	left	lower	1	768	ses-01	694
sub-021	2	312	crossed	different	same	800	right	lower	left	lower	1	729	ses-01	695
sub-021	2	313	crossed	different	different	100	left	lower	right	upper	1	866	ses-01	696
sub-021	2	314	crossed	same	same	50	left	lower	left	lower	1	1742	ses-01	697
sub-021	2	315	crossed	same	same	300	right	lower	right	lower	1	614	ses-01	698
sub-021	2	316	crossed	same	different	800	right	upper	right	lower	1	423	ses-01	699
sub-021	2	317	crossed	different	same	800	left	lower	right	lower	1	653	ses-01	700
sub-021	2	318	crossed	different	different	300	right	upper	left	lower	1	950	ses-01	701
sub-021	2	319	crossed	different	different	50	left	upper	right	lower	1	1017	ses-01	702
sub-021	2	320	crossed	different	different	300	left	lower	right	upper	1	724	ses-01	703
sub-021	2	321	crossed	different	same	800	left	lower	right	lower	1	994	ses-01	704
sub-021	2	322	crossed	different	different	100	left	upper	right	lower	1	930	ses-01	705
sub-021	2	323	crossed	different	different	50	left	upper	right	lower	0	880	ses-01	706
sub-021	2	324	crossed	same	different	100	right	lower	right	upper	1	656	ses-01	707
sub-021	2	325	crossed	different	same	50	left	lower	right	lower	1	793	ses-01	708
sub-021	2	326	crossed	same	same	300	right	lower	right	lower	1	749	ses-01	709
sub-021	2	327	crossed	same	different	50	left	lower	left	upper	1	812	ses-01	710
sub-021	2	328	crossed	same	different	300	left	lower	left	upper	1	619	ses-01	711
sub-021	2	329	crossed	different	same	50	left	lower	right	lower	1	1412	ses-01	712
sub-021	2	330	crossed	different	different	800	left	upper	right	lower	1	826	ses-01	713
sub-021	2	331	crossed	same	same	100	left	lower	left	lower	1	862	ses-01	714
sub-021	2	332	crossed	different	same	300	left	lower	right	lower	1	660	ses-01	715
sub-021	2	333	crossed	different	different	50	right	lower	left	upper	1	716	ses-01	716
sub-021	2	334	crossed	same	different	800	left	lower	left	upper	1	798	ses-01	717
sub-021	2	335	crossed	same	same	100	right	lower	right	lower	1	577	ses-01	718
sub-021	2	336	crossed	different	different	100	left	lower	right	upper	1	571	ses-01	719
sub-021	2	337	crossed	same	same	50	right	lower	right	lower	1	939	ses-01	720
sub-021	2	338	crossed	same	same	100	right	lower	right	lower	1	561	ses-01	721
sub-021	2	339	crossed	same	different	50	left	lower	left	upper	0	777	ses-01	722
sub-021	2	340	crossed	different	same	100	right	lower	left	lower	1	689	ses-01	723
sub-021	2	341	crossed	same	same	300	right	lower	right	lower	1	579	ses-01	724
sub-021	2	342	crossed	different	different	50	right	lower	left	upper	1	622	ses-01	725
sub-021	2	343	crossed	same	different	800	right	lower	right	upper	1	491	ses-01	726
sub-021	2	344	crossed	same	same	300	right	lower	right	lower	1	534	ses-01	727
sub-021	2	345	crossed	different	same	300	right	lower	left	lower	1	665	ses-01	728
sub-021	2	346	crossed	same	different	300	right	lower	right	upper	1	551	ses-01	729
sub-021	2	347	crossed	same	different	300	right	upper	right	lower	1	523	ses-01	730
sub-021	2	348	crossed	same	same	100	right	lower	right	lower	1	531	ses-01	731
sub-021	2	349	crossed	different	different	50	right	upper	left	lower	1	722	ses-01	732
sub-021	2	350	crossed	same	different	800	left	upper	left	lower	1	755	ses-01	733
sub-021	2	351	crossed	different	different	50	right	lower	left	upper	1	1016	ses-01	734
sub-021	2	352	crossed	different	same	800	right	lower	left	lower	1	1105	ses-01	735
sub-021	2	353	crossed	same	same	800	right	lower	right	lower	1	867	ses-01	736
sub-021	2	354	crossed	different	different	300	left	lower	right	upper	1	609	ses-01	737
sub-021	2	355	crossed	different	different	100	left	lower	right	upper	1	1079	ses-01	738
sub-021	2	356	crossed	same	same	50	right	lower	right	lower	1	1146	ses-01	739
sub-021	2	357	crossed	same	same	50	right	lower	right	lower	1	725	ses-01	740
sub-021	2	358	crossed	different	same	50	right	lower	left	lower	1	653	ses-01	741
sub-021	2	359	crossed	same	different	300	left	upper	left	lower	1	779	ses-01	742
sub-021	2	360	crossed	same	same	100	left	lower	left	lower	1	829	ses-01	743
sub-021	2	361	crossed	same	different	50	left	lower	left	upper	1	741	ses-01	744
sub-021	2	362	crossed	same	same	50	left	lower	left	lower	1	807	ses-01	745
sub-021	2	363	crossed	different	different	800	left	lower	right	upper	1	505	ses-01	746
sub-021	2	364	crossed	different	different	50	left	upper	right	lower	1	828	ses-01	747
sub-021	2	365	crossed	same	same	300	left	lower	left	lower	0	883	ses-01	748
sub-021	2	366	crossed	same	different	800	right	lower	right	upper	1	820	ses-01	749
sub-021	2	367	crossed	same	different	800	right	lower	right	upper	0	801	ses-01	750
sub-021	2	368	crossed	different	same	800	left	lower	right	lower	0	1820	ses-01	751
sub-021	2	369	crossed	different	different	300	right	upper	left	lower	1	610	ses-01	752
sub-021	2	370	crossed	different	same	300	left	lower	right	lower	1	861	ses-01	753
sub-021	2	371	crossed	same	same	100	left	lower	left	lower	1	677	ses-01	754
sub-021	2	372	crossed	different	same	300	left	lower	right	lower	1	615	ses-01	755
sub-021	2	373	crossed	same	different	800	left	upper	left	lower	1	569	ses-01	756
sub-021	2	374	crossed	different	same	800	left	lower	right	lower	1	615	ses-01	757
sub-021	2	375	crossed	different	different	100	right	lower	left	upper	1	1002	ses-01	758
sub-021	2	376	crossed	different	different	800	left	lower	right	upper	1	603	ses-01	759
sub-021	2	377	crossed	same	different	50	left	upper	left	lower	1	885	ses-01	760
sub-021	2	378	crossed	different	same	800	right	lower	left	lower	1	611	ses-01	761
sub-021	2	379	crossed	different	same	100	right	lower	left	lower	1	1290	ses-01	762
sub-021	2	380	crossed	different	different	800	left	lower	right	upper	1	572	ses-01	763
sub-021	2	381	crossed	same	same	300	left	lower	left	lower	1	1832	ses-01	764
sub-021	2	382	crossed	same	different	100	right	upper	right	lower	1	734	ses-01	765
sub-021	2	383	crossed	same	same	100	left	lower	left	lower	1	812	ses-01	766
sub-021	2	384	crossed	different	same	50	left	lower	right	lower	1	968	ses-01	767
sub-021	2	385	crossed	same	same	50	right	lower	right	lower	1	900	ses-01	768
sub-021	1	1	uncrossed	same	different	100	left	lower	left	upper	1	731	ses-01	769
sub-021	1	2	uncrossed	different	different	300	right	lower	left	upper	1	800	ses-01	770
sub-021	1	3	uncrossed	same	same	800	left	lower	left	lower	1	46	ses-01	771
sub-021	1	4	uncrossed	different	different	50	right	upper	left	lower	1	861	ses-01	772
sub-021	1	5	uncrossed	same	different	300	left	upper	left	lower	1	760	ses-01	773
sub-021	1	6	uncrossed	same	same	50	left	lower	left	lower	1	1213	ses-01	774
sub-021	1	7	uncrossed	same	different	50	right	lower	right	upper	1	1410	ses-01	775
sub-021	1	8	uncrossed	different	same	800	left	lower	right	lower	1	716	ses-01	776
sub-021	1	9	uncrossed	different	same	50	left	lower	right	lower	1	1003	ses-01	777
sub-021	1	10	uncrossed	different	different	100	right	upper	left	lower	1	933	ses-01	778
sub-021	1	11	uncrossed	same	different	800	left	upper	left	lower	1	1083	ses-01	779
sub-021	1	12	uncrossed	same	same	100	left	lower	left	lower	1	1184	ses-01	780
sub-021	1	13	uncrossed	different	same	100	right	lower	left	lower	1	870	ses-01	781
sub-021	1	14	uncrossed	different	different	800	left	lower	right	upper	1	707	ses-01	782
sub-021	1	15	uncrossed	different	same	800	left	lower	right	lower	1	612	ses-01	783
sub-021	1	16	uncrossed	different	same	50	left	lower	right	lower	1	919	ses-01	784
sub-021	1	17	uncrossed	same	different	800	right	upper	right	lower	1	1131	ses-01	785
sub-021	1	18	uncrossed	same	different	100	right	lower	right	upper	1	1016	ses-01	786
sub-021	1	19	uncrossed	same	different	100	left	lower	left	upper	1	1204	ses-01	787
sub-021	1	20	uncrossed	different	different	50	left	upper	right	lower	1	1001	ses-01	788
sub-021	1	21	uncrossed	same	different	800	right	upper	right	lower	1	782	ses-01	789
sub-021	1	22	uncrossed	same	same	300	left	lower	left	lower	1	1013	ses-01	790
sub-021	1	23	uncrossed	different	different	300	right	upper	left	lower	1	847	ses-01	791
sub-021	1	24	uncrossed	different	different	50	left	lower	right	upper	1	975	ses-01	792
sub-021	1	25	uncrossed	same	same	50	left	lower	left	lower	1	1322	ses-01	793
sub-021	1	26	uncrossed	different	different	50	left	lower	right	upper	1	990	ses-01	794
sub-021	1	27	uncrossed	different	same	300	right	lower	left	lower	1	772	ses-01	795
sub-021	1	28	uncrossed	same	same	800	left	lower	left	lower	1	683	ses-01	796
sub-021	1	29	uncrossed	different	same	100	left	lower	right	lower	1	823	ses-01	797
sub-021	1	30	uncrossed	different	same	100	right	lower	left	lower	1	850	ses-01	798
sub-021	1	31	uncrossed	different	different	100	left	upper	right	lower	1	796	ses-01	799
sub-021	1	32	uncrossed	different	same	800	left	lower	right	lower	1	601	ses-01	800
sub-021	1	33	uncrossed	different	different	100	left	upper	right	lower	1	718	ses-01	801
sub-021	1	34	uncrossed	same	different	300	left	lower	left	upper	1	729	ses-01	802
sub-021	1	35	uncrossed	different	different	300	right	upper	left	lower	1	809	ses-01	803
sub-021	1	36	uncrossed	different	different	100	right	lower	left	upper	1	861	ses-01	804
sub-021	1	37	uncrossed	different	different	800	right	lower	left	upper	1	617	ses-01	805
sub-021	1	38	uncrossed	same	same	50	right	lower	right	lower	1	1394	ses-01	806
sub-021	1	39	uncrossed	different	different	300	right	upper	left	lower	1	642	ses-01	807
sub-021	1	40	uncrossed	same	same	300	left	lower	left	lower	1	840	ses-01	808
sub-021	1	41	uncrossed	same	same	100	left	lower	left	lower	1	754	ses-01	809
sub-021	1	42	uncrossed	same	same	800	right	lower	right	lower	1	789	ses-01	810
sub-021	1	43	uncrossed	different	same	300	right	lower	left	lower	1	755	ses-01	811
sub-021	1	44	uncrossed	same	same	100	left	lower	left	lower	1	1114	ses-01	812
sub-021	1	45	uncrossed	same	different	50	right	upper	right	lower	1	864	ses-01	813
sub-021	1	46	uncrossed	different	same	300	right	lower	left	lower	1	627	ses-01	814
sub-021	1	47	uncrossed	different	different	50	right	lower	left	upper	1	897	ses-01	815
sub-021	1	48	uncrossed	same	different	800	right	lower	right	upper	1	935	ses-01	816
sub-021	1	49	uncrossed	different	same	50	left	lower	right	lower	1	776	ses-01	817
sub-021	1	50	uncrossed	different	different	800	right	lower	left	upper	1	834	ses-01	818
sub-021	1	51	uncrossed	same	different	50	left	upper	left	lower	1	842	ses-01	819
sub-021	1	52	uncrossed	different	same	300	left	lower	right	lower	1	698	ses-01	820
sub-021	1	53	uncrossed	different	same	800	right	lower	left	lower	1	628	ses-01	821
sub-021	1	54	uncrossed	different	same	100	left	lower	right	lower	1	710	ses-01	822
sub-021	1	55	uncrossed	same	same	100	right	lower	right	lower	1	1516	ses-01	823
sub-021	1	56	uncrossed	same	same	50	right	lower	right	lower	1	832	ses-01	824
sub-021	1	57	uncrossed	different	same	50	right	lower	left	lower	1	725	ses-01	825
sub-021	1	58	uncrossed	same	different	300	right	upper	right	lower	1	700	ses-01	826
sub-021	1	59	uncrossed	different	different	800	left	lower	right	upper	1	594	ses-01	827
sub-021	1	60	uncrossed	same	same	800	right	lower	right	lower	1	840	ses-01	828
sub-021	1	61	uncrossed	different	different	100	left	lower	right	upper	1	713	ses-01	829
sub-021	1	62	uncrossed	same	same	50	left	lower	left	lower	1	1334	ses-01	830
sub-021	1	63	uncrossed	different	same	100	left	lower	right	lower	1	768	ses-01	831
sub-021	1	64	uncrossed	different	same	50	left	lower	right	lower	1	867	ses-01	832
sub-021	1	65	uncrossed	same	same	100	left	lower	left	lower	1	1010	ses-01	833
sub-021	1	66	uncrossed	different	same	300	left	lower	right	lower	1	758	ses-01	834
sub-021	1	67	uncrossed	different	different	50	left	lower	right	upper	1	659	ses-01	835
sub-021	1	68	uncrossed	different	same	100	left	lower	right	lower	1	808	ses-01	836
sub-021	1	69	uncrossed	different	same	800	right	lower	left	lower	1	707	ses-01	837
sub-021	1	70	uncrossed	same	same	300	left	lower	left	lower	1	923	ses-01	838
sub-021	1	71	uncrossed	different	different	50	right	upper	left	lower	1	676	ses-01	839
sub-021	1	72	uncrossed	same	different	100	left	lower	left	upper	1	712	ses-01	840
sub-021	1	73	uncrossed	different	different	800	left	upper	right	lower	1	597	ses-01	841
sub-021	1	74	uncrossed	different	different	50	right	lower	left	upper	1	792	ses-01	842
sub-021	1	75	uncrossed	same	different	100	right	lower	right	upper	1	994	ses-01	843
sub-021	1	76	uncrossed	different	same	100	right	lower	left	lower	1	764	ses-01	844
sub-021	1	77	uncrossed	different	different	800	left	upper	right	lower	1	669	ses-01	845
sub-021	1	78	uncrossed	same	same	50	left	lower	left	lower	1	808	ses-01	846
sub-021	1	79	uncrossed	same	different	300	right	lower	right	upper	1	1609	ses-01	847
sub-021	1	80	uncrossed	same	same	50	right	lower	right	lower	1	917	ses-01	848
sub-021	1	81	uncrossed	different	different	50	right	lower	left	upper	1	687	ses-01	849
sub-021	1	82	uncrossed	same	same	100	right	lower	right	lower	1	776	ses-01	850
sub-021	1	83	uncrossed	same	different	300	left	lower	left	upper	1	659	ses-01	851
sub-021	1	84	uncrossed	different	same	300	left	lower	right	lower	1	827	ses-01	852
sub-021	1	85	uncrossed	same	different	300	left	upper	left	lower	1	757	ses-01	853
sub-021	1	86	uncrossed	different	same	800	right	lower	left	lower	1	677	ses-01	854
sub-021	1	87	uncrossed	different	different	300	left	lower	right	upper	1	589	ses-01	855
sub-021	1	88	uncrossed	different	same	100	left	lower	right	lower	1	705	ses-01	856
sub-021	1	89	uncrossed	different	different	100	right	lower	left	upper	1	759	ses-01	857
sub-021	1	90	uncrossed	same	same	300	right	lower	right	lower	1	851	ses-01	858
sub-021	1	91	uncrossed	different	different	100	left	lower	right	upper	1	627	ses-01	859
sub-021	1	92	uncrossed	same	different	800	right	upper	right	lower	1	829	ses-01	860
sub-021	1	93	uncrossed	same	different	800	right	upper	right	lower	1	793	ses-01	861
sub-021	1	94	uncrossed	different	different	800	left	upper	right	lower	1	607	ses-01	862
sub-021	1	95	uncrossed	same	same	800	right	lower	right	lower	1	871	ses-01	863
sub-021	1	96	uncrossed	same	same	800	right	lower	right	lower	1	764	ses-01	864
sub-021	1	97	uncrossed	different	different	800	right	upper	left	lower	1	713	ses-01	865
sub-021	1	98	uncrossed	same	same	100	right	lower	right	lower	1	868	ses-01	866
sub-021	1	99	uncrossed	different	different	800	right	upper	left	lower	1	637	ses-01	867
sub-021	1	100	uncrossed	different	same	300	left	lower	right	lower	1	963	ses-01	868
sub-021	1	101	uncrossed	different	different	800	right	upper	left	lower	1	613	ses-01	869
sub-021	1	102	uncrossed	different	different	50	right	upper	left	lower	1	753	ses-01	870
sub-021	1	103	uncrossed	same	same	100	left	lower	left	lower	1	917	ses-01	871
sub-021	1	104	uncrossed	different	same	50	right	lower	left	lower	1	738	ses-01	872
sub-021	1	105	uncrossed	different	different	50	left	upper	right	lower	1	825	ses-01	873
sub-021	1	106	uncrossed	same	same	800	left	lower	left	lower	1	415	ses-01	874
sub-021	1	107	uncrossed	different	same	800	right	lower	left	lower	1	648	ses-01	875
sub-021	1	108	uncrossed	different	different	800	left	lower	right	upper	1	673	ses-01	876
sub-021	1	109	uncrossed	different	different	50	right	upper	left	lower	1	799	ses-01	877
sub-021	1	110	uncrossed	same	same	800	left	lower	left	lower	1	865	ses-01	878
sub-021	1	111	uncrossed	same	same	100	right	lower	right	lower	1	1063	ses-01	879
sub-021	1	112	uncrossed	different	same	50	right	lower	left	lower	1	864	ses-01	880
sub-021	1	113	uncrossed	different	different	800	left	lower	right	upper	1	545	ses-01	881
sub-021	1	114	uncrossed	different	different	800	left	upper	right	lower	1	813	ses-01	882
sub-021	1	115	uncrossed	different	same	800	left	lower	right	lower	1	572	ses-01	883
sub-021	1	116	uncrossed	different	different	100	right	upper	left	lower	1	784	ses-01	884
sub-021	1	117	uncrossed	same	different	800	left	lower	left	upper	1	995	ses-01	885
sub-021	1	118	uncrossed	different	different	100	left	lower	right	upper	1	713	ses-01	886
sub-021	1	119	uncrossed	same	different	800	right	lower	right	upper	1	767	ses-01	887
sub-021	1	120	uncrossed	different	different	100	left	lower	right	upper	1	691	ses-01	888
sub-021	1	121	uncrossed	different	different	50	right	upper	left	lower	1	884	ses-01	889
sub-021	1	122	uncrossed	different	different	300	left	upper	right	lower	1	736	ses-01	890
sub-021	1	123	uncrossed	different	same	800	left	lower	right	lower	1	583	ses-01	891
sub-021	1	124	uncrossed	different	different	100	left	upper	right	lower	1	800	ses-01	892
sub-021	1	125	uncrossed	different	different	100	left	lower	right	upper	1	635	ses-01	893
sub-021	1	126	uncrossed	different	same	50	left	lower	right	lower	1	679	ses-01	894
sub-021	1	127	uncrossed	different	different	50	left	upper	right	lower	1	788	ses-01	895
sub-021	1	128	uncrossed	different	same	100	right	lower	left	lower	1	599	ses-01	896
sub-021	1	129	uncrossed	same	different	800	left	upper	left	lower	1	1035	ses-01	897
sub-021	1	130	uncrossed	different	same	100	left	lower	right	lower	1	682	ses-01	898
sub-021	1	131	uncrossed	same	same	300	right	lower	right	lower	1	886	ses-01	899
sub-021	1	132	uncrossed	same	same	800	right	lower	right	lower	1	674	ses-01	900
sub-021	1	133	uncrossed	same	different	100	right	upper	right	lower	1	817	ses-01	901
sub-021	1	134	uncrossed	different	same	100	left	lower	right	lower	1	634	ses-01	902
sub-021	1	135	uncrossed	same	different	300	left	lower	left	upper	1	1005	ses-01	903
sub-021	1	136	uncrossed	different	different	100	left	lower	right	upper	1	863	ses-01	904
sub-021	1	137	uncrossed	same	different	50	right	upper	right	lower	1	927	ses-01	905
sub-021	1	138	uncrossed	different	same	50	right	lower	left	lower	1	964	ses-01	906
sub-021	1	139	uncrossed	different	same	50	right	lower	left	lower	1	748	ses-01	907
sub-021	1	140	uncrossed	different	same	100	left	lower	right	lower	1	719	ses-01	908
sub-021	1	141	uncrossed	same	different	100	left	lower	left	upper	1	795	ses-01	909
sub-021	1	142	uncrossed	same	different	300	right	lower	right	upper	1	590	ses-01	910
sub-021	1	143	uncrossed	same	same	100	right	lower	right	lower	1	832	ses-01	911
sub-021	1	144	uncrossed	same	same	300	left	lower	left	lower	1	755	ses-01	912
sub-021	1	145	uncrossed	same	different	100	left	upper	left	lower	1	758	ses-01	913
sub-021	1	146	uncrossed	different	same	50	right	lower	left	lower	1	983	ses-01	914
sub-021	1	147	uncrossed	different	same	100	left	lower	right	lower	1	786	ses-01	915
sub-021	1	148	uncrossed	different	different	300	right	upper	left	lower	1	800	ses-01	916
sub-021	1	149	uncrossed	same	different	50	right	upper	right	lower	1	719	ses-01	917
sub-021	1	150	uncrossed	different	same	800	left	lower	right	lower	1	443	ses-01	918
sub-021	1	151	uncrossed	same	same	800	right	lower	right	lower	1	755	ses-01	919
sub-021	1	152	uncrossed	same	different	50	left	lower	left	upper	1	991	ses-01	920
sub-021	1	153	uncrossed	same	different	300	right	lower	right	upper	1	733	ses-01	921
sub-021	1	154	uncrossed	different	different	50	left	lower	right	upper	1	687	ses-01	922
sub-021	1	155	uncrossed	different	same	300	left	lower	right	lower	1	796	ses-01	923
sub-021	1	156	uncrossed	different	same	50	left	lower	right	lower	1	814	ses-01	924
sub-021	1	157	uncrossed	same	same	100	left	lower	left	lower	1	819	ses-01	925
sub-021	1	158	uncrossed	same	same	100	right	lower	right	lower	1	841	ses-01	926
sub-021	1	159	uncrossed	different	same	300	left	lower	right	lower	1	1354	ses-01	927
sub-021	1	160	uncrossed	same	different	50	left	upper	left	lower	1	859	ses-01	928
sub-021	1	161	uncrossed	same	same	300	left	lower	left	lower	1	789	ses-01	929
sub-021	1	162	uncrossed	same	same	100	left	lower	left	lower	1	807	ses-01	930
sub-021	1	163	uncrossed	different	same	800	left	lower	right	lower	1	562	ses-01	931
sub-021	1	164	uncrossed	same	different	50	left	upper	left	lower	1	1053	ses-01	932
sub-021	1	165	uncrossed	different	same	100	right	lower	left	lower	1	867	ses-01	933
sub-021	1	166	uncrossed	same	different	100	left	upper	left	lower	1	808	ses-01	934
sub-021	1	167	uncrossed	different	same	50	left	lower	right	lower	1	630	ses-01	935
sub-021	1	168	uncrossed	same	same	800	right	lower	right	lower	1	649	ses-01	936
sub-021	1	169	uncrossed	same	different	800	right	upper	right	lower	1	741	ses-01	937
sub-021	1	170	uncrossed	same	different	800	left	lower	left	upper	1	722	ses-01	938
sub-021	1	171	uncrossed	same	same	50	left	lower	left	lower	1	1512	ses-01	939
sub-021	1	172	uncrossed	same	same	50	right	lower	right	lower	1	1150	ses-01	940
sub-021	1	173	uncrossed	different	different	800	left	upper	right	lower	1	732	ses-01	941
sub-021	1	174	uncrossed	different	same	50	left	lower	right	lower	1	823	ses-01	942
sub-021	1	175	uncrossed	same	same	100	right	lower	right	lower	1	818	ses-01	943
sub-021	1	176	uncrossed	same	same	300	left	lower	left	lower	1	747	ses-01	944
sub-021	1	177	uncrossed	same	same	300	left	lower	left	lower	1	673	ses-01	945
sub-021	1	178	uncrossed	different	same	100	left	lower	right	lower	1	721	ses-01	946
sub-021	1	179	uncrossed	same	same	300	right	lower	right	lower	1	778	ses-01	947
sub-021	1	180	uncrossed	different	different	800	right	lower	left	upper	1	657	ses-01	948
sub-021	1	181	uncrossed	different	same	300	left	lower	right	lower	1	861	ses-01	949
sub-021	1	182	uncrossed	same	different	50	left	lower	left	upper	1	1001	ses-01	950
sub-021	1	183	uncrossed	different	same	800	right	lower	left	lower	1	656	ses-01	951
sub-021	1	184	uncrossed	different	same	50	right	lower	left	lower	1	863	ses-01	952
sub-021	1	185	uncrossed	different	different	100	right	upper	left	lower	1	689	ses-01	953
sub-021	1	186	uncrossed	different	same	800	left	lower	right	lower	1	667	ses-01	954
sub-021	1	187	uncrossed	same	different	300	left	upper	left	lower	1	1312	ses-01	955
sub-021	1	188	uncrossed	different	different	800	right	upper	left	lower	1	671	ses-01	956
sub-021	1	189	uncrossed	different	different	800	right	upper	left	lower	1	609	ses-01	957
sub-021	1	190	uncrossed	same	different	800	right	upper	right	lower	1	877	ses-01	958
sub-021	1	191	uncrossed	different	same	800	left	lower	right	lower	1	621	ses-01	959
sub-021	1	192	uncrossed	different	same	50	left	lower	right	lower	1	884	ses-01	960
sub-021	1	193	uncrossed	different	different	100	right	lower	left	upper	1	952	ses-01	961
sub-021	1	194	uncrossed	same	different	100	right	upper	right	lower	1	886	ses-01	962
sub-021	1	196	uncrossed	same	same	300	right	lower	right	lower	1	776	ses-01	963
sub-021	1	197	uncrossed	same	different	100	left	upper	left	lower	1	851	ses-01	964
sub-021	1	198	uncrossed	same	same	300	left	lower	left	lower	1	750	ses-01	965
sub-021	1	199	uncrossed	different	different	100	right	lower	left	upper	1	509	ses-01	966
sub-021	1	200	uncrossed	different	same	800	right	lower	left	lower	1	486	ses-01	967
sub-021	1	201	uncrossed	same	same	50	left	lower	left	lower	1	764	ses-01	968
sub-021	1	202	uncrossed	different	same	50	right	lower	left	lower	1	661	ses-01	969
sub-021	1	203	uncrossed	different	different	300	left	lower	right	upper	1	663	ses-01	970
sub-021	1	204	uncrossed	same	same	300	right	lower	right	lower	1	666	ses-01	971
sub-021	1	205	uncrossed	different	same	50	left	lower	right	lower	1	595	ses-01	972
sub-021	1	206	uncrossed	same	same	300	left	lower	left	lower	1	704	ses-01	973
sub-021	1	207	uncrossed	different	different	100	left	upper	right	lower	1	770	ses-01	974
sub-021	1	208	uncrossed	different	same	800	right	lower	left	lower	1	1144	ses-01	975
sub-021	1	209	uncrossed	same	different	50	right	upper	right	lower	1	662	ses-01	976
sub-021	1	210	uncrossed	different	different	300	right	lower	left	upper	1	588	ses-01	977
sub-021	1	211	uncrossed	different	same	300	left	lower	right	lower	1	663	ses-01	978
sub-021	1	212	uncrossed	same	different	800	right	lower	right	upper	1	700	ses-01	979
sub-021	1	213	uncrossed	same	same	100	left	lower	left	lower	1	812	ses-01	980
sub-021	1	214	uncrossed	same	same	100	left	lower	left	lower	1	799	ses-01	981
sub-021	1	215	uncrossed	same	different	50	left	lower	left	upper	1	638	ses-01	982
sub-021	1	216	uncrossed	same	same	100	left	lower	left	lower	1	798	ses-01	983
sub-021	1	217	uncrossed	same	same	800	left	lower	left	lower	1	927	ses-01	984
sub-021	1	218	uncrossed	same	different	50	right	lower	right	upper	1	784	ses-01	985
sub-021	1	219	uncrossed	different	same	50	right	lower	left	lower	1	735	ses-01	986
sub-021	1	220	uncrossed	same	different	800	left	lower	left	upper	1	684	ses-01	987
sub-021	1	221	uncrossed	same	same	100	right	lower	right	lower	1	586	ses-01	988
sub-021	1	223	uncrossed	same	same	800	left	lower	left	lower	1	1176	ses-01	989
sub-021	1	224	uncrossed	same	same	100	right	lower	right	lower	1	958	ses-01	990
sub-021	1	225	uncrossed	different	same	50	left	lower	right	lower	1	810	ses-01	991
sub-021	1	226	uncrossed	same	same	800	left	lower	left	lower	1	675	ses-01	992
sub-021	1	227	uncrossed	same	same	800	right	lower	right	lower	1	703	ses-01	993
sub-021	1	228	uncrossed	different	different	300	left	upper	right	lower	1	688	ses-01	994
sub-021	1	229	uncrossed	same	same	50	left	lower	left	lower	1	1179	ses-01	995
sub-021	1	230	uncrossed	same	same	800	left	lower	left	lower	1	646	ses-01	996
sub-021	1	231	uncrossed	same	different	50	left	upper	left	lower	1	634	ses-01	997
sub-021	1	232	uncrossed	different	different	300	left	lower	right	upper	1	582	ses-01	998
sub-021	1	233	uncrossed	different	same	100	right	lower	left	lower	1	984	ses-01	999
sub-021	1	234	uncrossed	different	same	100	right	lower	left	lower	1	705	ses-01	1000
sub-021	1	235	uncrossed	different	same	300	left	lower	right	lower	1	486	ses-01	1001
sub-021	1	236	uncrossed	different	different	300	right	upper	left	lower	1	623	ses-01	1002
sub-021	1	237	uncrossed	different	same	100	right	lower	left	lower	1	718	ses-01	1003
sub-021	1	238	uncrossed	different	different	800	right	lower	left	upper	1	699	ses-01	1004
sub-021	1	239	uncrossed	different	different	800	right	upper	left	lower	1	609	ses-01	1005
sub-021	1	240	uncrossed	same	same	300	right	lower	right	lower	1	706	ses-01	1006
sub-021	1	241	uncrossed	different	same	800	right	lower	left	lower	1	584	ses-01	1007
sub-021	1	242	uncrossed	different	same	50	right	lower	left	lower	1	789	ses-01	1008
sub-021	1	243	uncrossed	same	different	50	right	lower	right	upper	1	710	ses-01	1009
sub-021	1	244	uncrossed	different	different	50	left	lower	right	upper	1	556	ses-01	1010
sub-021	1	245	uncrossed	different	different	100	left	upper	right	lower	1	600	ses-01	1011
sub-021	1	246	uncrossed	different	same	800	right	lower	left	lower	1	637	ses-01	1012
sub-021	1	247	uncrossed	same	different	300	right	lower	right	upper	1	827	ses-01	1013
sub-021	1	248	uncrossed	same	same	100	left	lower	left	lower	1	700	ses-01	1014
sub-021	1	249	uncrossed	same	different	50	left	lower	left	upper	1	705	ses-01	1015
sub-021	1	250	uncrossed	different	same	800	left	lower	right	lower	1	609	ses-01	1016
sub-021	1	251	uncrossed	same	same	800	right	lower	right	lower	1	764	ses-01	1017
sub-021	1	252	uncrossed	different	different	300	right	upper	left	lower	1	661	ses-01	1018
sub-021	1	253	uncrossed	different	same	300	right	lower	left	lower	1	606	ses-01	1019
sub-021	1	254	uncrossed	different	different	300	left	upper	right	lower	1	769	ses-01	1020
sub-021	1	255	uncrossed	same	different	300	right	upper	right	lower	1	797	ses-01	1021
sub-021	1	256	uncrossed	different	different	800	left	upper	right	lower	1	559	ses-01	1022
sub-021	1	257	uncrossed	same	same	300	right	lower	right	lower	1	622	ses-01	1023
sub-021	1	258	uncrossed	different	different	300	left	upper	right	lower	1	513	ses-01	1024
sub-021	1	259	uncrossed	same	different	800	left	upper	left	lower	1	664	ses-01	1025
sub-021	1	260	uncrossed	different	different	100	right	upper	left	lower	1	672	ses-01	1026
sub-021	1	261	uncrossed	same	different	100	right	lower	right	upper	1	730	ses-01	1027
sub-021	1	262	uncrossed	different	same	300	right	lower	left	lower	1	662	ses-01	1028
sub-021	1	263	uncrossed	same	same	800	right	lower	right	lower	1	721	ses-01	1029
sub-021	1	264	uncrossed	same	same	50	right	lower	right	lower	1	1483	ses-01	1030
sub-021	1	265	uncrossed	different	same	300	right	lower	left	lower	1	648	ses-01	1031
sub-021	1	266	uncrossed	same	different	300	right	lower	right	upper	1	729	ses-01	1032
sub-021	1	267	uncrossed	same	different	100	left	lower	left	upper	1	819	ses-01	1033
sub-021	1	268	uncrossed	different	same	800	right	lower	left	lower	1	570	ses-01	1034
sub-021	1	269	uncrossed	same	different	100	right	upper	right	lower	1	772	ses-01	1035
sub-021	1	270	uncrossed	different	different	300	left	lower	right	upper	1	664	ses-01	1036
sub-021	1	271	uncrossed	same	same	50	right	lower	right	lower	1	713	ses-01	1037
sub-021	1	272	uncrossed	different	same	800	right	lower	left	lower	1	643	ses-01	1038
sub-021	1	273	uncrossed	same	same	800	left	lower	left	lower	1	636	ses-01	1039
sub-021	1	274	uncrossed	different	same	100	right	lower	left	lower	1	874	ses-01	1040
sub-021	1	275	uncrossed	same	different	100	right	upper	right	lower	1	667	ses-01	1041
sub-021	1	276	uncrossed	different	different	300	right	lower	left	upper	1	581	ses-01	1042
sub-021	1	277	uncrossed	different	same	300	right	lower	left	lower	1	797	ses-01	1043
sub-021	1	278	uncrossed	same	same	800	right	lower	right	lower	1	641	ses-01	1044
sub-021	1	279	uncrossed	different	same	100	right	lower	left	lower	1	776	ses-01	1045
sub-021	1	280	uncrossed	different	same	800	left	lower	right	lower	1	576	ses-01	1046
sub-021	1	281	uncrossed	different	different	100	right	upper	left	lower	1	732	ses-01	1047
sub-021	1	282	uncrossed	same	different	800	left	upper	left	lower	1	573	ses-01	1048
sub-021	1	283	uncrossed	same	different	300	left	upper	left	lower	1	695	ses-01	1049
sub-021	1	284	uncrossed	different	same	300	left	lower	right	lower	1	817	ses-01	1050
sub-021	1	285	uncrossed	same	same	50	left	lower	left	lower	1	1069	ses-01	1051
sub-021	1	286	uncrossed	different	different	300	right	lower	left	upper	1	607	ses-01	1052
sub-021	1	287	uncrossed	same	different	300	right	upper	right	lower	1	775	ses-01	1053
sub-021	1	288	uncrossed	same	same	100	right	lower	right	lower	1	728	ses-01	1054
sub-021	1	289	uncrossed	same	same	300	right	lower	right	lower	1	614	ses-01	1055
sub-021	1	290	uncrossed	different	same	50	left	lower	right	lower	1	695	ses-01	1056
sub-021	1	291	uncrossed	different	different	100	right	upper	left	lower	1	589	ses-01	1057
sub-021	1	292	uncrossed	same	different	100	right	lower	right	upper	1	724	ses-01	1058
sub-021	1	293	uncrossed	same	same	50	left	lower	left	lower	1	791	ses-01	1059
sub-021	1	294	uncrossed	different	same	100	right	lower	left	lower	1	795	ses-01	1060
sub-021	1	295	uncrossed	same	different	800	left	lower	left	upper	1	971	ses-01	1061
sub-021	1	297	uncrossed	same	same	50	right	lower	right	lower	1	941	ses-01	1062
sub-021	1	298	uncrossed	same	same	300	right	lower	right	lower	1	670	ses-01	1063
sub-021	1	299	uncrossed	same	same	50	right	lower	right	lower	1	689	ses-01	1064
sub-021	1	300	uncrossed	same	different	300	left	upper	left	lower	1	685	ses-01	1065
sub-021	1	301	uncrossed	same	different	50	right	lower	right	upper	1	752	ses-01	1066
sub-021	1	302	uncrossed	same	different	800	left	lower	left	upper	1	487	ses-01	1067
sub-021	1	303	uncrossed	same	same	50	right	lower	right	lower	1	645	ses-01	1068
sub-021	1	304	uncrossed	same	different	100	right	lower	right	upper	1	712	ses-01	1069
sub-021	1	305	uncrossed	different	same	100	left	lower	right	lower	1	514	ses-01	1070
sub-021	1	306	uncrossed	different	different	300	right	lower	left	upper	1	673	ses-01	1071
sub-021	1	307	uncrossed	same	same	300	right	lower	right	lower	1	536	ses-01	1072
sub-021	1	308	uncrossed	same	same	100	right	lower	right	lower	1	669	ses-01	1073
sub-021	1	309	uncrossed	same	different	300	right	upper	right	lower	1	534	ses-01	1074
sub-021	1	310	uncrossed	different	different	50	right	lower	left	upper	1	883	ses-01	1075
sub-021	1	311	uncrossed	same	different	50	right	upper	right	lower	1	631	ses-01	1076
sub-021	1	312	uncrossed	different	same	100	right	lower	left	lower	1	683	ses-01	1077
sub-021	1	313	uncrossed	different	different	100	right	lower	left	upper	1	641	ses-01	1078
sub-021	1	314	uncrossed	different	different	50	right	lower	left	upper	1	606	ses-01	1079
sub-021	1	315	uncrossed	different	different	300	left	upper	right	lower	1	645	ses-01	1080
sub-021	1	316	uncrossed	same	different	50	left	upper	left	lower	1	858	ses-01	1081
sub-021	1	317	uncrossed	different	different	800	left	lower	right	upper	1	593	ses-01	1082
sub-021	1	318	uncrossed	same	different	300	left	lower	left	upper	1	637	ses-01	1083
sub-021	1	319	uncrossed	same	different	100	right	upper	right	lower	0	972	ses-01	1084
sub-021	1	320	uncrossed	same	different	300	left	lower	left	upper	1	715	ses-01	1085
sub-021	1	321	uncrossed	same	same	100	left	lower	left	lower	1	731	ses-01	1086
sub-021	1	322	uncrossed	same	same	50	right	lower	right	lower	1	1109	ses-01	1087
sub-021	1	323	uncrossed	different	same	300	right	lower	left	lower	1	787	ses-01	1088
sub-021	1	324	uncrossed	same	same	50	right	lower	right	lower	1	680	ses-01	1089
sub-021	1	325	uncrossed	same	different	100	left	lower	left	upper	1	757	ses-01	1090
sub-021	1	326	uncrossed	same	different	800	left	lower	left	upper	1	576	ses-01	1091
sub-021	1	327	uncrossed	different	different	800	right	lower	left	upper	1	633	ses-01	1092
sub-021	1	328	uncrossed	different	same	50	right	lower	left	lower	1	790	ses-01	1093
sub-021	1	329	uncrossed	different	different	50	left	upper	right	lower	1	698	ses-01	1094
sub-021	1	330	uncrossed	different	same	800	right	lower	left	lower	1	599	ses-01	1095
sub-021	1	331	uncrossed	same	different	800	right	lower	right	upper	1	588	ses-01	1096
sub-021	1	332	uncrossed	same	different	50	left	lower	left	upper	1	1191	ses-01	1097
sub-021	1	333	uncrossed	different	same	100	left	lower	right	lower	1	706	ses-01	1098
sub-021	1	334	uncrossed	different	different	800	right	lower	left	upper	1	577	ses-01	1099
sub-021	1	335	uncrossed	different	same	300	left	lower	right	lower	1	685	ses-01	1100
sub-021	1	336	uncrossed	different	different	300	left	lower	right	upper	1	725	ses-01	1101
sub-021	1	337	uncrossed	different	different	50	right	lower	left	upper	1	771	ses-01	1102
sub-021	1	338	uncrossed	same	same	800	right	lower	right	lower	1	519	ses-01	1103
sub-021	1	339	uncrossed	same	different	100	left	upper	left	lower	1	718	ses-01	1104
sub-021	1	340	uncrossed	different	different	100	right	lower	left	upper	1	721	ses-01	1105
sub-021	1	341	uncrossed	different	different	300	left	lower	right	upper	1	616	ses-01	1106
sub-021	1	342	uncrossed	same	same	300	right	lower	right	lower	1	727	ses-01	1107
sub-021	1	343	uncrossed	same	different	50	right	lower	right	upper	1	646	ses-01	1108
sub-021	1	344	uncrossed	different	different	800	left	lower	right	upper	1	411	ses-01	1109
sub-021	1	345	uncrossed	same	same	800	left	lower	left	lower	1	761	ses-01	1110
sub-021	1	346	uncrossed	same	same	800	left	lower	left	lower	1	603	ses-01	1111
sub-021	1	347	uncrossed	same	same	50	left	lower	left	lower	1	1120	ses-01	1112
sub-021	1	348	uncrossed	same	different	50	right	lower	right	upper	1	730	ses-01	1113
sub-021	1	349	uncrossed	same	different	50	left	lower	left	upper	1	823	ses-01	1114
sub-021	1	350	uncrossed	different	different	50	left	upper	right	lower	1	800	ses-01	1115
sub-021	1	351	uncrossed	different	same	50	right	lower	left	lower	1	782	ses-01	1116
sub-021	1	352	uncrossed	same	different	300	left	lower	left	upper	1	704	ses-01	1117
sub-021	1	353	uncrossed	different	different	300	right	lower	left	upper	1	596	ses-01	1118
sub-021	1	354	uncrossed	same	different	300	left	upper	left	lower	1	757	ses-01	1119
sub-021	1	355	uncrossed	different	same	800	left	lower	right	lower	1	578	ses-01	1120
sub-021	1	356	uncrossed	same	different	300	right	upper	right	lower	1	568	ses-01	1121
sub-021	1	357	uncrossed	same	different	100	right	lower	right	upper	1	686	ses-01	1122
sub-021	1	358	uncrossed	same	different	50	right	upper	right	lower	1	879	ses-01	1123
sub-021	1	359	uncrossed	same	different	800	left	upper	left	lower	1	614	ses-01	1124
sub-021	1	360	uncrossed	different	different	300	left	upper	right	lower	1	733	ses-01	1125
sub-021	1	361	uncrossed	same	same	300	left	lower	left	lower	1	693	ses-01	1126
sub-021	1	362	uncrossed	same	same	100	right	lower	right	lower	1	708	ses-01	1127
sub-021	1	363	uncrossed	same	same	800	left	lower	left	lower	1	639	ses-01	1128
sub-021	1	364	uncrossed	different	different	100	left	upper	right	lower	1	733	ses-01	1129
sub-021	1	365	uncrossed	different	different	50	left	lower	right	upper	1	782	ses-01	1130
sub-021	1	366	uncrossed	different	same	300	right	lower	left	lower	1	671	ses-01	1131
sub-021	1	367	uncrossed	different	different	50	left	upper	right	lower	1	672	ses-01	1132
sub-021	1	368	uncrossed	same	different	300	right	upper	right	lower	1	546	ses-01	1133
sub-021	1	369	uncrossed	same	different	300	right	lower	right	upper	1	587	ses-01	1134
sub-021	1	370	uncrossed	same	same	300	right	lower	right	lower	1	523	ses-01	1135
sub-021	1	371	uncrossed	different	same	300	right	lower	left	lower	1	747	ses-01	1136
sub-021	1	372	uncrossed	same	different	100	left	upper	left	lower	1	607	ses-01	1137
sub-021	1	373	uncrossed	different	different	50	right	upper	left	lower	1	632	ses-01	1138
sub-021	1	374	uncrossed	same	same	50	left	lower	left	lower	1	538	ses-01	1139
sub-021	1	375	uncrossed	different	same	300	left	lower	right	lower	1	749	ses-01	1140
sub-021	1	376	uncrossed	same	same	50	left	lower	left	lower	1	894	ses-01	1141
sub-021	1	377	uncrossed	same	same	50	right	lower	right	lower	1	763	ses-01	1142
sub-021	1	378	uncrossed	same	different	100	left	upper	left	lower	1	653	ses-01	1143
sub-021	1	379	uncrossed	same	different	50	left	upper	left	lower	1	570	ses-01	1144
sub-021	1	380	uncrossed	same	different	800	right	lower	right	upper	1	602	ses-01	1145
sub-021	1	381	uncrossed	same	different	800	left	upper	left	lower	1	569	ses-01	1146
sub-021	1	382	uncrossed	same	different	100	right	upper	right	lower	1	649	ses-01	1147
sub-021	1	383	uncrossed	same	different	800	right	lower	right	upper	1	522	ses-01	1148
sub-021	1	384	uncrossed	same	same	300	left	lower	left	lower	1	721	ses-01	1149
sub-021	1	385	uncrossed	different	same	300	right	lower	left	lower	1	717	ses-01	1150
sub-021	1	386	uncrossed	same	same	300	left	lower	left	lower	1	691	ses-01	1151
sub-021	1	388	uncrossed	different	same	300	right	lower	left	lower	1	674	ses-01	1152
sub-021	2	2	uncrossed	different	same	50	right	lower	left	lower	1	749	ses-01	1153
sub-021	2	3	uncrossed	different	different	300	left	upper	right	lower	1	665	ses-01	1154
sub-021	2	6	uncrossed	different	different	300	right	upper	left	lower	1	641	ses-01	1155
sub-021	2	10	uncrossed	same	same	300	left	lower	left	lower	1	1084	ses-01	1156
sub-021	2	16	uncrossed	different	same	50	left	lower	right	lower	1	788	ses-01	1157
sub-021	2	17	uncrossed	same	different	100	left	lower	left	upper	1	702	ses-01	1158
sub-021	2	18	uncrossed	same	different	800	left	lower	left	upper	1	43	ses-01	1159
sub-021	2	19	uncrossed	different	same	300	left	lower	right	lower	1	660	ses-01	1160
sub-021	2	20	uncrossed	different	same	50	left	lower	right	lower	1	703	ses-01	1161
sub-021	2	21	uncrossed	different	different	800	left	upper	right	lower	1	585	ses-01	1162
sub-021	2	22	uncrossed	different	same	300	left	lower	right	lower	1	638	ses-01	1163
sub-021	2	23	uncrossed	different	different	800	left	upper	right	lower	1	526	ses-01	1164
sub-021	2	24	uncrossed	same	same	50	left	lower	left	lower	1	787	ses-01	1165
sub-021	2	25	uncrossed	same	same	100	right	lower	right	lower	1	584	ses-01	1166
sub-021	2	26	uncrossed	different	same	800	left	lower	right	lower	1	516	ses-01	1167
sub-021	2	27	uncrossed	same	same	800	left	lower	left	lower	1	523	ses-01	1168
sub-021	2	28	uncrossed	same	different	100	left	upper	left	lower	1	542	ses-01	1169
sub-021	2	29	uncrossed	different	different	50	left	lower	right	upper	1	575	ses-01	1170
sub-021	2	30	uncrossed	different	same	800	right	lower	left	lower	1	572	ses-01	1171
sub-021	2	31	uncrossed	same	same	800	right	lower	right	lower	1	509	ses-01	1172
sub-021	2	32	uncrossed	same	different	300	left	lower	left	upper	1	529	ses-01	1173
sub-021	2	33	uncrossed	same	same	800	left	lower	left	lower	1	750	ses-01	1174
sub-021	2	34	uncrossed	same	different	50	left	lower	left	upper	1	669	ses-01	1175
sub-021	2	35	uncrossed	same	different	100	right	lower	right	upper	1	590	ses-01	1176
sub-021	2	36	uncrossed	different	same	300	right	lower	left	lower	1	591	ses-01	1177
sub-021	2	37	uncrossed	different	same	50	right	lower	left	lower	1	1083	ses-01	1178
sub-021	2	38	uncrossed	different	different	800	left	lower	right	upper	1	508	ses-01	1179
sub-021	2	39	uncrossed	same	same	50	right	lower	right	lower	1	620	ses-01	1180
sub-021	2	40	uncrossed	same	different	800	right	lower	right	upper	1	561	ses-01	1181
sub-021	2	41	uncrossed	different	different	300	left	lower	right	upper	1	526	ses-01	1182
sub-021	2	42	uncrossed	same	different	300	right	upper	right	lower	1	608	ses-01	1183
sub-021	2	43	uncrossed	same	same	100	left	lower	left	lower	1	600	ses-01	1184
sub-021	2	44	uncrossed	different	same	100	left	lower	right	lower	1	623	ses-01	1185
sub-021	2	45	uncrossed	different	different	800	right	upper	left	lower	1	569	ses-01	1186
sub-021	2	46	uncrossed	same	different	300	right	upper	right	lower	1	592	ses-01	1187
sub-021	2	47	uncrossed	different	same	100	right	lower	left	lower	1	790	ses-01	1188
sub-021	2	48	uncrossed	different	different	300	left	upper	right	lower	1	507	ses-01	1189
sub-021	2	49	uncrossed	same	different	300	right	upper	right	lower	1	480	ses-01	1190
sub-021	2	50	uncrossed	different	same	300	right	lower	left	lower	1	547	ses-01	1191
sub-021	2	51	uncrossed	same	different	100	right	upper	right	lower	1	616	ses-01	1192
sub-021	2	52	uncrossed	same	different	800	right	upper	right	lower	1	495	ses-01	1193
sub-021	2	53	uncrossed	same	different	300	left	upper	left	lower	1	607	ses-01	1194
sub-021	2	54	uncrossed	different	same	50	left	lower	right	lower	1	708	ses-01	1195
sub-021	2	55	uncrossed	different	different	300	right	upper	left	lower	1	599	ses-01	1196
sub-021	2	56	uncrossed	same	same	800	left	lower	left	lower	1	627	ses-01	1197
sub-021	2	57	uncrossed	same	same	100	left	lower	left	lower	1	582	ses-01	1198
sub-021	2	58	uncrossed	different	same	300	left	lower	right	lower	1	625	ses-01	1199
sub-021	2	59	uncrossed	different	different	300	left	lower	right	upper	1	831	ses-01	1200
sub-021	2	60	uncrossed	different	same	800	right	lower	left	lower	1	516	ses-01	1201
sub-021	2	61	uncrossed	same	same	800	right	lower	right	lower	1	511	ses-01	1202
sub-021	2	62	uncrossed	same	same	800	left	lower	left	lower	1	623	ses-01	1203
sub-021	2	63	uncrossed	same	same	300	right	lower	right	lower	1	524	ses-01	1204
sub-021	2	64	uncrossed	same	different	800	right	lower	right	upper	1	505	ses-01	1205
sub-021	2	65	uncrossed	different	different	800	left	lower	right	upper	1	552	ses-01	1206
sub-021	2	66	uncrossed	different	same	300	right	lower	left	lower	1	712	ses-01	1207
sub-021	2	67	uncrossed	same	different	50	right	lower	right	upper	1	604	ses-01	1208
sub-021	2	68	uncrossed	same	different	50	left	lower	left	upper	1	673	ses-01	1209
sub-021	2	69	uncrossed	same	same	50	left	lower	left	lower	1	728	ses-01	1210
sub-021	2	70	uncrossed	same	different	100	left	lower	left	upper	1	610	ses-01	1211
sub-021	2	71	uncrossed	different	same	50	left	lower	right	lower	1	745	ses-01	1212
sub-021	2	72	uncrossed	different	different	50	left	lower	right	upper	1	597	ses-01	1213
sub-021	2	73	uncrossed	different	different	300	right	lower	left	upper	1	994	ses-01	1214
sub-021	2	74	uncrossed	different	same	300	right	lower	left	lower	1	661	ses-01	1215
sub-021	2	75	uncrossed	same	same	50	left	lower	left	lower	1	699	ses-01	1216
sub-021	2	76	uncrossed	different	same	800	left	lower	right	lower	1	570	ses-01	1217
sub-021	2	77	uncrossed	different	same	50	left	lower	right	lower	1	837	ses-01	1218
sub-021	2	78	uncrossed	different	different	800	right	lower	left	upper	1	474	ses-01	1219
sub-021	2	79	uncrossed	different	same	800	left	lower	right	lower	1	771	ses-01	1220
sub-021	2	80	uncrossed	same	same	100	right	lower	right	lower	1	690	ses-01	1221
sub-021	2	81	uncrossed	different	same	50	right	lower	left	lower	1	636	ses-01	1222
sub-021	2	82	uncrossed	different	different	800	right	upper	left	lower	1	547	ses-01	1223
sub-021	2	83	uncrossed	different	same	300	right	lower	left	lower	1	692	ses-01	1224
sub-021	2	84	uncrossed	same	same	100	right	lower	right	lower	1	707	ses-01	1225
sub-021	2	85	uncrossed	different	same	300	left	lower	right	lower	1	639	ses-01	1226
sub-021	2	86	uncrossed	same	same	100	right	lower	right	lower	1	632	ses-01	1227
