participant_id	run	trial_in_run	posture	stim_side	stim_segment	soa	tactor1side	tactor1segment	tactor2side	tactor2segment	response_correct	rt	session	trial
sub-011	1	1	crossed	same	same	50	right	lower	right	lower	1	1018	ses-01	1
sub-011	1	2	crossed	different	same	300	right	lower	left	lower	1	876	ses-01	2
sub-011	1	3	crossed	different	different	50	right	lower	left	upper	1	1104	ses-01	3
sub-011	1	4	crossed	different	same	50	right	lower	left	lower	1	862	ses-01	4
sub-011	1	5	crossed	same	same	300	left	lower	left	lower	1	1053	ses-01	5
sub-011	1	6	crossed	different	same	800	right	lower	left	lower	1	1336	ses-01	6
sub-011	1	7	crossed	same	same	50	left	lower	left	lower	1	858	ses-01	7
sub-011	1	8	crossed	different	same	50	left	lower	right	lower	1	1576	ses-01	8
sub-011	1	9	crossed	same	same	100	left	lower	left	lower	1	768	ses-01	9
sub-011	1	10	crossed	same	different	300	right	lower	right	upper	1	985	ses-01	10
sub-011	1	11	crossed	same	different	300	left	lower	left	upper	1	869	ses-01	11
sub-011	1	12	crossed	same	same	50	right	lower	right	lower	1	852	ses-01	12
sub-011	1	13	crossed	different	same	100	left	lower	right	lower	0	1706	ses-01	13
sub-011	1	14	crossed	different	same	800	right	lower	left	lower	1	732	ses-01	14
sub-011	1	15	crossed	different	different	100	left	lower	right	upper	1	1983	ses-01	15
sub-011	1	16	crossed	same	same	50	left	lower	left	lower	1	797	ses-01	16
sub-011	1	17	crossed	different	same	800	right	lower	left	lower	1	832	ses-01	17
sub-011	1	18	crossed	same	same	300	right	lower	right	lower	1	1050	ses-01	18
sub-011	1	19	crossed	different	same	50	right	lower	left	lower	1	1154	ses-01	19
sub-011	1	20	crossed	same	same	300	right	lower	right	lower	1	1005	ses-01	20
sub-011	1	21	crossed	different	different	50	right	upper	left	lower	1	1023	ses-01	21
sub-011	1	22	crossed	same	same	300	right	lower	right	lower	1	1337	ses-01	22
sub-011	1	23	crossed	different	same	800	left	lower	right	lower	1	1291	ses-01	23
sub-011	1	24	crossed	same	different	300	left	upper	left	lower	0	1450	ses-01	24
sub-011	1	25	crossed	same	same	100	right	lower	right	lower	1	1402	ses-01	25
sub-011	1	26	crossed	different	different	100	right	upper	left	lower	1	1213	ses-01	26
sub-011	1	27	crossed	same	different	300	left	lower	left	upper	1	856	ses-01	27
sub-011	1	28	crossed	same	same	800	right	lower	right	lower	1	1024	ses-01	28
sub-011	1	29	crossed	same	different	800	right	lower	right	upper	1	940	ses-01	29
sub-011	1	30	crossed	same	different	800	left	upper	left	lower	1	964	ses-01	30
sub-011	1	31	crossed	different	different	300	right	lower	left	upper	0	1041	ses-01	31
sub-011	1	32	crossed	same	same	800	right	lower	right	lower	1	1711	ses-01	32
sub-011	1	33	crossed	different	different	100	left	lower	right	upper	1	1087	ses-01	33
sub-011	1	34	crossed	different	same	300	right	lower	left	lower	0	1021	ses-01	34
sub-011	1	35	crossed	different	different	100	right	upper	left	lower	1	2054	ses-01	35
sub-011	1	36	crossed	same	same	800	left	lower	left	lower	1	822	ses-01	36
sub-011	1	37	crossed	same	same	100	right	lower	right	lower	1	926	ses-01	37
sub-011	1	38	crossed	different	different	100	right	upper	left	lower	1	2260	ses-01	38
sub-011	1	39	crossed	different	different	300	right	upper	left	lower	1	729	ses-01	39
sub-011	1	40	crossed	same	same	800	left	lower	left	lower	1	794	ses-01	40
sub-011	1	41	crossed	same	different	100	right	upper	right	lower	1	946	ses-01	41
sub-011	1	42	crossed	same	different	300	right	lower	right	upper	1	837	ses-01	42
sub-011	1	43	crossed	different	different	100	left	upper	right	lower	0	1004	ses-01	43
sub-011	1	44	crossed	different	different	300	right	upper	left	lower	1	1177	ses-01	44
sub-011	1	45	crossed	different	same	100	right	lower	left	lower	0	1725	ses-01	45
sub-011	1	46	crossed	different	same	800	right	lower	left	lower	1	1185	ses-01	46
sub-011	1	47	crossed	different	same	50	right	lower	left	lower	0	1662	ses-01	47
sub-011	1	48	crossed	different	same	800	right	lower	left	lower	1	1410	ses-01	48
sub-011	1	49	crossed	same	different	100	right	lower	right	upper	1	821	ses-01	49
sub-011	1	50	crossed	same	different	50	left	upper	left	lower	1	943	ses-01	50
sub-011	1	51	crossed	same	same	100	right	lower	right	lower	1	1163	ses-01	51
sub-011	1	52	crossed	same	same	100	left	lower	left	lower	1	873	ses-01	52
sub-011	1	53	crossed	same	different	300	left	lower	left	upper	1	807	ses-01	53
sub-011	1	54	crossed	different	same	300	left	lower	right	lower	1	1402	ses-01	54
sub-011	1	55	crossed	same	same	50	left	lower	left	lower	1	1058	ses-01	55
sub-011	1	56	crossed	same	same	800	left	lower	left	lower	1	731	ses-01	56
sub-011	1	57	crossed	same	different	100	right	upper	right	lower	1	780	ses-01	57
sub-011	1	58	crossed	different	same	100	right	lower	left	lower	1	903	ses-01	58
sub-011	1	59	crossed	same	different	300	right	lower	right	upper	1	764	ses-01	59
sub-011	1	60	crossed	different	different	300	left	upper	right	lower	1	988	ses-01	60
sub-011	1	61	crossed	different	different	800	right	upper	left	lower	1	707	ses-01	61
sub-011	1	62	crossed	different	different	800	left	upper	right	lower	1	1163	ses-01	62
sub-011	1	63	crossed	same	different	100	left	upper	left	lower	1	780	ses-01	63
sub-011	1	64	crossed	different	different	50	right	upper	left	lower	1	657	ses-01	64
sub-011	1	65	crossed	different	same	100	right	lower	left	lower	1	1060	ses-01	65
sub-011	1	66	crossed	different	same	50	left	lower	right	lower	1	715	ses-01	66
sub-011	1	67	crossed	same	different	50	right	upper	right	lower	1	1063	ses-01	67
sub-011	1	68	crossed	different	different	300	left	upper	right	lower	0	1370	ses-01	68
sub-011	1	69	crossed	same	different	50	right	lower	right	upper	1	1838	ses-01	69
sub-011	1	70	crossed	same	same	100	right	lower	right	lower	1	689	ses-01	70
sub-011	1	71	crossed	different	different	300	left	upper	right	lower	0	2335	ses-01	71
sub-011	1	72	crossed	different	different	100	right	upper	left	lower	1	889	ses-01	72
sub-011	1	73	crossed	different	different	800	right	upper	left	lower	1	1147	ses-01	73
sub-011	1	74	crossed	different	different	50	right	upper	left	lower	1	912	ses-01	74
sub-011	1	75	crossed	same	different	100	left	lower	left	upper	1	993	ses-01	75
sub-011	1	76	crossed	different	different	800	left	lower	right	upper	1	719	ses-01	76
sub-011	1	77	crossed	different	same	50	left	lower	right	lower	1	803	ses-01	77
sub-011	1	78	crossed	different	different	800	left	lower	right	upper	1	621	ses-01	78
sub-011	1	79	crossed	same	same	100	left	lower	left	lower	1	879	ses-01	79
sub-011	1	80	crossed	different	different	100	left	upper	right	lower	1	2089	ses-01	80
sub-011	1	81	crossed	different	different	50	left	lower	right	upper	1	1367	ses-01	81
sub-011	1	82	crossed	different	different	800	right	lower	left	upper	0	1483	ses-01	82
sub-011	1	83	crossed	same	different	100	right	lower	right	upper	1	1615	ses-01	83
sub-011	1	84	crossed	same	same	800	left	lower	left	lower	1	1180	ses-01	84
sub-011	1	85	crossed	same	different	300	left	lower	left	upper	1	836	ses-01	85
sub-011	1	86	crossed	same	different	800	left	lower	left	upper	1	863	ses-01	86
sub-011	1	87	crossed	different	same	300	right	lower	left	lower	1	686	ses-01	87
sub-011	1	88	crossed	different	different	100	right	lower	left	upper	1	1418	ses-01	88
sub-011	1	89	crossed	same	different	800	right	lower	right	upper	1	959	ses-01	89
sub-011	1	90	crossed	different	same	50	left	lower	right	lower	1	1669	ses-01	90
sub-011	1	91	crossed	same	same	50	right	lower	right	lower	1	1092	ses-01	91
sub-011	1	92	crossed	different	different	50	left	upper	right	lower	0	1542	ses-01	92
sub-011	1	93	crossed	different	different	100	left	upper	right	lower	1	764	ses-01	93
sub-011	1	94	crossed	different	same	50	right	lower	left	lower	1	1565	ses-01	94
sub-011	1	95	crossed	different	same	100	left	lower	right	lower	0	1406	ses-01	95
sub-011	1	96	crossed	same	different	100	right	lower	right	upper	1	999	ses-01	96
sub-011	1	97	crossed	same	same	50	left	lower	left	lower	1	894	ses-01	97
sub-011	1	98	crossed	different	different	50	right	lower	left	upper	0	1528	ses-01	98
sub-011	1	99	crossed	same	same	800	right	lower	right	lower	0	949	ses-01	99
sub-011	1	100	crossed	same	different	300	left	upper	left	lower	1	774	ses-01	100
sub-011	1	101	crossed	different	different	50	right	upper	left	lower	0	1310	ses-01	101
sub-011	1	102	crossed	same	different	50	right	upper	right	lower	1	1207	ses-01	102
sub-011	1	103	crossed	different	same	100	right	lower	left	lower	1	2046	ses-01	103
sub-011	1	104	crossed	same	same	300	left	lower	left	lower	1	861	ses-01	104
sub-011	1	105	crossed	different	different	50	left	upper	right	lower	1	857	ses-01	105
sub-011	1	106	crossed	different	same	300	left	lower	right	lower	0	2293	ses-01	106
sub-011	1	107	crossed	same	different	100	right	upper	right	lower	1	943	ses-01	107
sub-011	1	108	crossed	same	same	50	left	lower	left	lower	1	905	ses-01	108
sub-011	1	109	crossed	same	same	800	right	lower	right	lower	1	664	ses-01	109
sub-011	1	110	crossed	same	same	300	right	lower	right	lower	1	922	ses-01	110
sub-011	1	111	crossed	same	different	800	right	lower	right	upper	1	819	ses-01	111
sub-011	1	112	crossed	same	different	100	left	upper	left	lower	1	1557	ses-01	112
sub-011	1	113	crossed	same	same	300	right	lower	right	lower	1	839	ses-01	113
sub-011	1	114	crossed	same	different	300	right	upper	right	lower	1	1330	ses-01	114
sub-011	1	115	crossed	different	same	50	right	lower	left	lower	1	906	ses-01	115
sub-011	1	116	crossed	different	different	50	left	lower	right	upper	1	1135	ses-01	116
sub-011	1	117	crossed	same	different	800	right	upper	right	lower	1	1222	ses-01	117
sub-011	1	118	crossed	different	same	100	right	lower	left	lower	1	1306	ses-01	118
sub-011	1	119	crossed	different	different	50	right	upper	left	lower	1	789	ses-01	119
sub-011	1	120	crossed	different	different	800	right	lower	left	upper	1	1212	ses-01	120
sub-011	1	121	crossed	same	same	50	left	lower	left	lower	1	1008	ses-01	121
sub-011	1	122	crossed	same	different	300	left	upper	left	lower	1	1024	ses-01	122
sub-011	1	123	crossed	different	same	100	right	lower	left	lower	1	1279	ses-01	123
sub-011	1	124	crossed	different	different	50	left	lower	right	upper	1	1079	ses-01	124
sub-011	1	125	crossed	same	same	300	right	lower	right	lower	0	1717	ses-01	125
sub-011	1	126	crossed	same	same	800	left	lower	left	lower	1	1135	ses-01	126
sub-011	1	127	crossed	different	same	300	left	lower	right	lower	1	1497	ses-01	127
sub-011	1	128	crossed	same	different	50	left	upper	left	lower	1	1005	ses-01	128
sub-011	1	129	crossed	different	same	100	left	lower	right	lower	1	1302	ses-01	129
sub-011	1	130	crossed	different	different	800	left	lower	right	upper	1	1265	ses-01	130
sub-011	1	131	crossed	different	same	800	right	lower	left	lower	1	1014	ses-01	131
sub-011	1	132	crossed	same	same	50	left	lower	left	lower	1	1235	ses-01	132
sub-011	1	133	crossed	same	different	300	right	upper	right	lower	1	1450	ses-01	133
sub-011	1	134	crossed	different	different	300	right	upper	left	lower	1	1224	ses-01	134
sub-011	1	135	crossed	different	same	300	left	lower	right	lower	1	1273	ses-01	135
sub-011	1	136	crossed	different	same	100	right	lower	left	lower	1	855	ses-01	136
sub-011	1	137	crossed	same	different	300	left	upper	left	lower	1	898	ses-01	137
sub-011	1	138	crossed	same	same	300	left	lower	left	lower	1	933	ses-01	138
sub-011	1	139	crossed	same	same	100	right	lower	right	lower	1	935	ses-01	139
sub-011	1	140	crossed	different	different	50	left	lower	right	upper	1	894	ses-01	140
sub-011	1	141	crossed	different	same	100	left	lower	right	lower	1	792	ses-01	141
sub-011	1	142	crossed	different	same	50	left	lower	right	lower	1	1147	ses-01	142
sub-011	1	143	crossed	different	different	800	right	upper	left	lower	1	816	ses-01	143
sub-011	1	144	crossed	same	same	300	left	lower	left	lower	1	919	ses-01	144
sub-011	1	145	crossed	same	same	300	right	lower	right	lower	1	873	ses-01	145
sub-011	1	146	crossed	different	different	50	left	upper	right	lower	1	1468	ses-01	146
sub-011	1	147	crossed	different	same	300	right	lower	left	lower	1	934	ses-01	147
sub-011	1	148	crossed	same	same	100	right	lower	right	lower	1	1189	ses-01	148
sub-011	1	149	crossed	different	different	800	left	lower	right	upper	1	1012	ses-01	149
sub-011	1	150	crossed	same	different	100	left	upper	left	lower	1	940	ses-01	150
sub-011	1	151	crossed	same	same	50	right	lower	right	lower	1	974	ses-01	151
sub-011	1	152	crossed	same	different	100	left	lower	left	upper	1	780	ses-01	152
sub-011	1	153	crossed	same	same	800	left	lower	left	lower	1	807	ses-01	153
sub-011	1	154	crossed	same	different	100	right	upper	right	lower	1	786	ses-01	154
sub-011	1	155	crossed	different	different	800	left	upper	right	lower	1	936	ses-01	155
sub-011	1	156	crossed	same	different	50	right	lower	right	upper	1	797	ses-01	156
sub-011	1	157	crossed	same	same	800	right	lower	right	lower	1	1680	ses-01	157
sub-011	1	158	crossed	different	different	800	right	lower	left	upper	1	788	ses-01	158
sub-011	1	159	crossed	same	same	300	left	lower	left	lower	1	836	ses-01	159
sub-011	1	160	crossed	different	same	800	right	lower	left	lower	1	876	ses-01	160
sub-011	1	161	crossed	different	different	100	left	lower	right	upper	1	1554	ses-01	161
sub-011	1	162	crossed	different	different	50	left	lower	right	upper	0	1487	ses-01	162
sub-011	1	163	crossed	different	same	800	right	lower	left	lower	1	1311	ses-01	163
sub-011	1	164	crossed	different	same	50	left	lower	right	lower	1	2083	ses-01	164
sub-011	1	165	crossed	same	different	50	right	upper	right	lower	0	848	ses-01	165
sub-011	1	166	crossed	different	same	100	left	lower	right	lower	1	1043	ses-01	166
sub-011	1	167	crossed	same	same	300	left	lower	left	lower	1	802	ses-01	167
sub-011	1	168	crossed	same	different	50	left	lower	left	upper	1	749	ses-01	168
sub-011	1	169	crossed	same	same	800	right	lower	right	lower	1	822	ses-01	169
sub-011	1	170	crossed	different	same	50	left	lower	right	lower	1	994	ses-01	170
sub-011	1	171	crossed	different	different	50	right	lower	left	upper	1	903	ses-01	171
sub-011	1	172	crossed	same	different	100	left	lower	left	upper	0	715	ses-01	172
sub-011	1	173	crossed	different	different	300	right	upper	left	lower	1	752	ses-01	173
sub-011	1	174	crossed	different	same	300	left	lower	right	lower	1	787	ses-01	174
sub-011	1	175	crossed	different	different	800	left	upper	right	lower	1	1372	ses-01	175
sub-011	1	176	crossed	same	different	800	left	lower	left	upper	1	671	ses-01	176
sub-011	1	177	crossed	same	same	300	left	lower	left	lower	1	997	ses-01	177
sub-011	1	178	crossed	same	same	800	right	lower	right	lower	1	863	ses-01	178
sub-011	1	179	crossed	same	same	800	left	lower	left	lower	1	744	ses-01	179
sub-011	1	180	crossed	different	different	800	right	upper	left	lower	1	920	ses-01	180
sub-011	1	181	crossed	different	different	100	right	lower	left	upper	1	886	ses-01	181
sub-011	1	182	crossed	same	same	100	right	lower	right	lower	1	1012	ses-01	182
sub-011	1	183	crossed	different	different	300	left	lower	right	upper	1	1441	ses-01	183
sub-011	1	184	crossed	different	different	300	left	lower	right	upper	1	853	ses-01	184
sub-011	1	185	crossed	different	same	300	left	lower	right	lower	0	1944	ses-01	185
sub-011	1	186	crossed	same	different	300	right	lower	right	upper	1	1696	ses-01	186
sub-011	1	187	crossed	different	same	300	right	lower	left	lower	0	1409	ses-01	187
sub-011	1	188	crossed	same	different	800	left	upper	left	lower	1	826	ses-01	188
sub-011	1	189	crossed	same	same	300	left	lower	left	lower	1	853	ses-01	189
sub-011	1	190	crossed	different	same	300	right	lower	left	lower	1	2151	ses-01	190
sub-011	1	191	crossed	different	different	100	left	upper	right	lower	0	1269	ses-01	191
sub-011	1	192	crossed	same	different	100	right	lower	right	upper	1	978	ses-01	192
sub-011	1	193	crossed	same	same	50	right	lower	right	lower	1	1517	ses-01	193
sub-011	1	194	crossed	different	same	50	right	lower	left	lower	1	922	ses-01	194
sub-011	1	195	crossed	same	same	300	right	lower	right	lower	1	1578	ses-01	195
sub-011	1	196	crossed	same	different	100	right	lower	right	upper	1	1037	ses-01	196
sub-011	1	197	crossed	same	same	300	right	lower	right	lower	0	1316	ses-01	197
sub-011	1	198	crossed	different	different	100	left	lower	right	upper	1	1273	ses-01	198
sub-011	1	199	crossed	same	different	800	left	upper	left	lower	1	1148	ses-01	199
sub-011	1	200	crossed	same	same	800	left	lower	left	lower	1	856	ses-01	200
sub-011	1	201	crossed	same	different	50	left	upper	left	lower	1	838	ses-01	201
sub-011	1	202	crossed	different	same	100	right	lower	left	lower	1	821	ses-01	202
sub-011	1	203	crossed	same	different	50	left	lower	left	upper	1	1772	ses-01	203
sub-011	1	204	crossed	same	different	300	right	upper	right	lower	1	805	ses-01	204
sub-011	1	205	crossed	different	same	50	right	lower	left	lower	1	969	ses-01	205
sub-011	1	206	crossed	different	same	800	left	lower	right	lower	1	1529	ses-01	206
sub-011	1	207	crossed	different	same	300	left	lower	right	lower	0	1405	ses-01	207
sub-011	1	208	crossed	different	same	50	left	lower	right	lower	1	961	ses-01	208
sub-011	1	209	crossed	different	different	100	right	upper	left	lower	1	1337	ses-01	209
sub-011	1	210	crossed	same	same	300	left	lower	left	lower	1	870	ses-01	210
sub-011	1	211	crossed	different	different	50	left	upper	right	lower	1	1624	ses-01	211
sub-011	1	212	crossed	different	same	50	left	lower	right	lower	1	1156	ses-01	212
sub-011	1	213	crossed	same	same	50	left	lower	left	lower	1	824	ses-01	213
sub-011	1	214	crossed	different	different	800	left	upper	right	lower	1	1675	ses-01	214
sub-011	1	215	crossed	same	different	50	right	lower	right	upper	0	1426	ses-01	215
sub-011	1	216	crossed	same	same	800	left	lower	left	lower	1	1900	ses-01	216
sub-011	1	217	crossed	same	different	100	left	upper	left	lower	1	923	ses-01	217
sub-011	1	218	crossed	different	same	50	right	lower	left	lower	1	943	ses-01	218
sub-011	1	219	crossed	different	same	800	left	lower	right	lower	1	936	ses-01	219
sub-011	1	220	crossed	same	different	800	left	lower	left	upper	1	1242	ses-01	220
sub-011	1	221	crossed	same	same	100	left	lower	left	lower	1	867	ses-01	221
sub-011	1	222	crossed	different	different	300	right	lower	left	upper	0	1575	ses-01	222
sub-011	1	223	crossed	same	same	100	left	lower	left	lower	1	840	ses-01	223
sub-011	1	224	crossed	same	same	100	left	lower	left	lower	1	789	ses-01	224
sub-011	1	225	crossed	different	same	100	left	lower	right	lower	1	1020	ses-01	225
sub-011	1	226	crossed	different	same	800	left	lower	right	lower	0	915	ses-01	226
sub-011	1	227	crossed	same	different	100	right	lower	right	upper	1	1018	ses-01	227
sub-011	1	228	crossed	same	different	50	right	upper	right	lower	1	798	ses-01	228
sub-011	1	229	crossed	same	same	100	left	lower	left	lower	1	922	ses-01	229
sub-011	1	230	crossed	same	different	800	right	lower	right	upper	1	835	ses-01	230
sub-011	1	231	crossed	same	different	100	left	lower	left	upper	1	1063	ses-01	231
sub-011	1	232	crossed	same	different	50	right	lower	right	upper	1	844	ses-01	232
sub-011	1	233	crossed	same	same	300	left	lower	left	lower	1	1390	ses-01	233
sub-011	1	234	crossed	same	different	300	right	lower	right	upper	1	1723	ses-01	234
sub-011	1	235	crossed	different	same	100	right	lower	left	lower	1	991	ses-01	235
sub-011	1	236	crossed	same	same	800	right	lower	right	lower	1	889	ses-01	236
sub-011	1	237	crossed	same	same	100	left	lower	left	lower	1	962	ses-01	237
sub-011	1	238	crossed	different	same	100	right	lower	left	lower	1	843	ses-01	238
sub-011	1	239	crossed	different	same	300	right	lower	left	lower	1	762	ses-01	239
sub-011	1	240	crossed	different	same	50	left	lower	right	lower	1	684	ses-01	240
sub-011	1	241	crossed	same	same	50	right	lower	right	lower	1	1334	ses-01	241
sub-011	1	242	crossed	different	same	50	left	lower	right	lower	0	1069	ses-01	242
sub-011	1	243	crossed	different	different	50	right	lower	left	upper	0	1384	ses-01	243
sub-011	1	244	crossed	same	different	800	right	upper	right	lower	1	1130	ses-01	244
sub-011	1	245	crossed	same	same	50	left	lower	left	lower	1	1244	ses-01	245
sub-011	1	246	crossed	same	same	800	right	lower	right	lower	0	1669	ses-01	246
sub-011	1	247	crossed	different	different	300	left	upper	right	lower	0	1910	ses-01	247
sub-011	1	248	crossed	same	same	50	right	lower	right	lower	1	2287	ses-01	248
sub-011	1	249	crossed	different	different	300	right	lower	left	upper	0	1406	ses-01	249
sub-011	1	250	crossed	different	different	50	left	upper	right	lower	1	2638	ses-01	250
sub-011	1	251	crossed	different	same	100	left	lower	right	lower	1	1730	ses-01	251
sub-011	1	252	crossed	same	different	50	left	lower	left	upper	1	895	ses-01	252
sub-011	1	253	crossed	different	same	100	left	lower	right	lower	1	901	ses-01	253
sub-011	1	254	crossed	same	same	800	left	lower	left	lower	1	1142	ses-01	254
sub-011	1	255	crossed	same	different	100	right	upper	right	lower	1	996	ses-01	255
sub-011	1	256	crossed	different	same	100	left	lower	right	lower	1	1823	ses-01	256
sub-011	1	257	crossed	different	different	800	left	lower	right	upper	1	822	ses-01	257
sub-011	1	258	crossed	different	same	300	left	lower	right	lower	1	950	ses-01	258
sub-011	1	259	crossed	same	same	50	right	lower	right	lower	1	1842	ses-01	259
sub-011	1	260	crossed	different	different	300	left	upper	right	lower	1	1849	ses-01	260
sub-011	1	261	crossed	different	same	800	right	lower	left	lower	1	1263	ses-01	261
sub-011	1	262	crossed	different	same	800	left	lower	right	lower	0	1420	ses-01	262
sub-011	1	263	crossed	different	different	300	left	lower	right	upper	1	911	ses-01	263
sub-011	1	264	crossed	same	same	800	left	lower	left	lower	1	1001	ses-01	264
sub-011	1	265	crossed	different	different	300	right	lower	left	upper	0	2131	ses-01	265
sub-011	1	266	crossed	different	same	50	right	lower	left	lower	0	1491	ses-01	266
sub-011	1	267	crossed	different	different	300	right	lower	left	upper	1	736	ses-01	267
sub-011	1	268	crossed	different	same	100	right	lower	left	lower	0	940	ses-01	268
sub-011	1	269	crossed	same	different	300	right	upper	right	lower	0	1260	ses-01	269
sub-011	1	270	crossed	same	different	50	right	upper	right	lower	1	1149	ses-01	270
sub-011	1	271	crossed	different	same	100	right	lower	left	lower	1	1147	ses-01	271
sub-011	1	272	crossed	same	same	100	left	lower	left	lower	1	914	ses-01	272
sub-011	1	273	crossed	same	same	100	right	lower	right	lower	1	925	ses-01	273
sub-011	1	274	crossed	same	same	50	left	lower	left	lower	1	1193	ses-01	274
sub-011	1	275	crossed	different	same	50	right	lower	left	lower	0	1083	ses-01	275
sub-011	1	276	crossed	different	same	800	left	lower	right	lower	1	936	ses-01	276
sub-011	1	277	crossed	different	different	100	right	lower	left	upper	0	963	ses-01	277
sub-011	1	278	crossed	same	same	100	right	lower	right	lower	1	1006	ses-01	278
sub-011	1	279	crossed	different	different	100	right	lower	left	upper	0	1697	ses-01	279
sub-011	1	280	crossed	same	same	50	right	lower	right	lower	0	1502	ses-01	280
sub-011	1	281	crossed	same	different	300	right	upper	right	lower	1	788	ses-01	281
sub-011	1	282	crossed	different	different	100	right	upper	left	lower	1	977	ses-01	282
sub-011	1	283	crossed	different	different	800	left	lower	right	upper	1	724	ses-01	283
sub-011	1	284	crossed	same	same	50	left	lower	left	lower	1	786	ses-01	284
sub-011	1	285	crossed	different	different	300	left	upper	right	lower	1	1995	ses-01	285
sub-011	1	286	crossed	different	different	100	left	lower	right	upper	1	997	ses-01	286
sub-011	1	287	crossed	different	same	300	right	lower	left	lower	1	817	ses-01	287
sub-011	1	288	crossed	same	same	100	right	lower	right	lower	0	737	ses-01	288
sub-011	1	289	crossed	different	same	800	left	lower	right	lower	1	1012	ses-01	289
sub-011	1	290	crossed	same	different	800	left	upper	left	lower	1	750	ses-01	290
sub-011	1	291	crossed	different	different	300	left	lower	right	upper	1	1332	ses-01	291
sub-011	1	292	crossed	same	different	800	right	upper	right	lower	1	1581	ses-01	292
sub-011	1	293	crossed	different	same	100	left	lower	right	lower	1	862	ses-01	293
sub-011	1	294	crossed	same	different	800	left	lower	left	upper	1	910	ses-01	294
sub-011	1	295	crossed	different	same	50	right	lower	left	lower	1	822	ses-01	295
sub-011	1	296	crossed	different	same	300	left	lower	right	lower	0	2011	ses-01	296
sub-011	1	297	crossed	different	same	800	right	lower	left	lower	1	1014	ses-01	297
sub-011	1	298	crossed	different	different	50	right	upper	left	lower	1	868	ses-01	298
sub-011	1	299	crossed	same	same	300	right	lower	right	lower	1	1209	ses-01	299
sub-011	1	300	crossed	same	different	800	right	lower	right	upper	0	1878	ses-01	300
sub-011	1	301	crossed	same	different	100	left	upper	left	lower	1	828	ses-01	301
sub-011	1	302	crossed	same	same	300	left	lower	left	lower	1	798	ses-01	302
sub-011	1	303	crossed	different	same	300	right	lower	left	lower	1	780	ses-01	303
sub-011	1	304	crossed	different	different	300	left	lower	right	upper	1	844	ses-01	304
sub-011	1	305	crossed	different	different	800	left	upper	right	lower	1	1335	ses-01	305
sub-011	1	306	crossed	same	different	50	right	lower	right	upper	0	1053	ses-01	306
sub-011	1	307	crossed	different	different	300	right	lower	left	upper	0	1129	ses-01	307
sub-011	1	308	crossed	same	different	50	left	lower	left	upper	1	949	ses-01	308
sub-011	1	309	crossed	different	different	100	right	lower	left	upper	0	1091	ses-01	309
sub-011	1	310	crossed	different	same	300	left	lower	right	lower	0	1586	ses-01	310
sub-011	1	311	crossed	different	different	100	left	upper	right	lower	0	1074	ses-01	311
sub-011	1	312	crossed	different	different	50	right	lower	left	upper	0	846	ses-01	312
sub-011	1	313	crossed	different	different	50	left	upper	right	lower	0	1167	ses-01	313
sub-011	1	314	crossed	same	same	50	right	lower	right	lower	0	963	ses-01	314
sub-011	1	315	crossed	different	same	300	left	lower	right	lower	0	1925	ses-01	315
sub-011	1	316	crossed	same	same	100	left	lower	left	lower	1	712	ses-01	316
sub-011	1	317	crossed	different	different	50	right	lower	left	upper	1	808	ses-01	317
sub-011	1	318	crossed	different	different	100	left	lower	right	upper	1	1397	ses-01	318
sub-011	1	319	crossed	same	same	300	left	lower	left	lower	1	934	ses-01	319
sub-011	1	320	crossed	same	different	800	right	upper	right	lower	1	1982	ses-01	320
sub-011	1	321	crossed	different	different	800	right	lower	left	upper	0	907	ses-01	321
sub-011	1	322	crossed	same	same	50	right	lower	right	lower	1	1390	ses-01	322
sub-011	1	323	crossed	same	different	300	left	upper	left	lower	1	842	ses-01	323
sub-011	1	324	crossed	same	same	300	right	lower	right	lower	1	952	ses-01	324
sub-011	1	325	crossed	same	same	100	right	lower	right	lower	1	1757	ses-01	325
sub-011	1	326	crossed	different	same	800	left	lower	right	lower	1	1288	ses-01	326
sub-011	1	327	crossed	same	same	50	right	lower	right	lower	1	996	ses-01	327
sub-011	1	328	crossed	same	different	50	left	upper	left	lower	1	987	ses-01	328
sub-011	1	329	crossed	same	different	50	left	lower	left	upper	1	792	ses-01	329
sub-011	1	330	crossed	same	same	50	left	lower	left	lower	1	600	ses-01	330
sub-011	1	331	crossed	same	different	100	left	lower	left	upper	1	873	ses-01	331
sub-011	1	332	crossed	different	same	800	left	lower	right	lower	1	763	ses-01	332
sub-011	1	333	crossed	same	different	50	left	upper	left	lower	1	812	ses-01	333
sub-011	1	334	crossed	same	different	100	left	lower	left	upper	1	655	ses-01	334
sub-011	1	335	crossed	different	different	300	right	upper	left	lower	1	755	ses-01	335
sub-011	1	336	crossed	same	different	50	left	lower	left	upper	1	912	ses-01	336
sub-011	1	338	crossed	different	same	100	left	lower	right	lower	1	599	ses-01	337
sub-011	1	339	crossed	same	same	100	left	lower	left	lower	1	855	ses-01	338
sub-011	1	340	crossed	same	different	800	right	upper	right	lower	1	1652	ses-01	339
sub-011	1	342	crossed	different	same	300	right	lower	left	lower	1	602	ses-01	340
sub-011	1	343	crossed	same	different	300	right	upper	right	lower	0	1132	ses-01	341
sub-011	1	344	crossed	different	same	800	right	lower	left	lower	1	886	ses-01	342
sub-011	1	345	crossed	same	different	800	left	lower	left	upper	1	837	ses-01	343
sub-011	1	346	crossed	same	different	300	left	lower	left	upper	1	971	ses-01	344
sub-011	1	347	crossed	different	different	50	left	lower	right	upper	1	1854	ses-01	345
sub-011	1	349	crossed	different	different	100	right	lower	left	upper	0	1046	ses-01	346
sub-011	1	350	crossed	different	different	800	left	upper	right	lower	1	1050	ses-01	347
sub-011	1	351	crossed	different	same	800	right	lower	left	lower	1	1162	ses-01	348
sub-011	1	352	crossed	different	same	100	left	lower	right	lower	0	911	ses-01	349
sub-011	1	353	crossed	same	different	800	right	upper	right	lower	1	1435	ses-01	350
sub-011	1	354	crossed	same	different	800	right	lower	right	upper	1	883	ses-01	351
sub-011	1	355	crossed	different	different	800	right	upper	left	lower	1	1215	ses-01	352
sub-011	1	356	crossed	same	different	50	left	upper	left	lower	1	1035	ses-01	353
sub-011	1	357	crossed	different	same	50	left	lower	right	lower	1	1107	ses-01	354
sub-011	1	358	crossed	same	same	800	right	lower	right	lower	0	1133	ses-01	355
sub-011	1	359	crossed	different	same	300	right	lower	left	lower	0	1005	ses-01	356
sub-011	1	360	crossed	different	different	800	right	upper	left	lower	1	834	ses-01	357
sub-011	1	361	crossed	same	same	100	right	lower	right	lower	1	1722	ses-01	358
sub-011	1	362	crossed	same	same	800	left	lower	left	lower	1	834	ses-01	359
sub-011	1	363	crossed	same	different	300	left	lower	left	upper	1	1069	ses-01	360
sub-011	1	364	crossed	different	different	800	right	lower	left	upper	1	1760	ses-01	361
sub-011	1	365	crossed	different	same	800	left	lower	right	lower	1	889	ses-01	362
sub-011	1	366	crossed	same	different	50	right	lower	right	upper	1	1010	ses-01	363
sub-011	1	367	crossed	different	different	100	left	upper	right	lower	0	2026	ses-01	364
sub-011	1	368	crossed	same	same	800	right	lower	right	lower	0	1048	ses-01	365
sub-011	1	369	crossed	same	different	800	left	upper	left	lower	1	914	ses-01	366
sub-011	1	370	crossed	same	different	100	left	upper	left	lower	1	747	ses-01	367
sub-011	1	371	crossed	different	same	50	right	lower	left	lower	1	880	ses-01	368
sub-011	1	372	crossed	same	same	800	right	lower	right	lower	1	1371	ses-01	369
sub-011	1	373	crossed	different	same	800	left	lower	right	lower	1	920	ses-01	370
sub-011	1	374	crossed	different	different	300	left	lower	right	upper	1	933	ses-01	371
sub-011	1	375	crossed	same	same	300	right	lower	right	lower	1	910	ses-01	372
sub-011	1	376	crossed	same	different	300	right	lower	right	upper	0	1054	ses-01	373
sub-011	1	377	crossed	different	same	300	left	lower	right	lower	1	964	ses-01	374
sub-011	1	378	crossed	different	different	800	right	lower	left	upper	1	1044	ses-01	375
sub-011	1	379	crossed	same	different	50	right	upper	right	lower	1	1299	ses-01	376
sub-011	1	380	crossed	same	different	300	left	upper	left	lower	1	842	ses-01	377
sub-011	1	381	crossed	same	different	800	left	upper	left	lower	1	674	ses-01	378
sub-011	1	382	crossed	same	different	800	left	lower	left	upper	1	722	ses-01	379
sub-011	1	383	crossed	same	same	100	left	lower	left	lower	1	761	ses-01	380
sub-011	1	384	crossed	different	same	800	left	lower	right	lower	1	788	ses-01	381
sub-011	1	385	crossed	different	different	300	right	upper	left	lower	1	878	ses-01	382
sub-011	1	386	crossed	same	different	100	right	upper	right	lower	1	860	ses-01	383
sub-011	1	387	crossed	different	same	300	right	lower	left	lower	1	884	ses-01	384
sub-011	2	1	crossed	same	same	800	right	lower	right	lower	1	958	ses-01	385
sub-011	2	2	crossed	different	different	100	left	upper	right	lower	0	2005	ses-01	386
sub-011	2	3	crossed	different	same	50	left	lower	right	lower	0	1436	ses-01	387
sub-011	2	4	crossed	different	different	300	right	lower	left	upper	1	1271	ses-01	388
sub-011	2	5	crossed	same	same	100	left	lower	left	lower	1	775	ses-01	389
sub-011	2	6	crossed	different	same	100	right	lower	left	lower	0	1461	ses-01	390
sub-011	2	7	crossed	different	same	300	left	lower	right	lower	1	1376	ses-01	391
sub-011	2	8	crossed	same	same	800	right	lower	right	lower	1	1452	ses-01	392
sub-011	2	9	crossed	different	different	300	right	lower	left	upper	1	1088	ses-01	393
sub-011	2	10	crossed	different	different	100	left	lower	right	upper	1	2097	ses-01	394
sub-011	2	11	crossed	same	different	50	right	lower	right	upper	1	1730	ses-01	395
sub-011	2	12	crossed	different	different	50	left	upper	right	lower	1	1819	ses-01	396
sub-011	2	13	crossed	different	different	100	right	lower	left	upper	1	2213	ses-01	397
sub-011	2	14	crossed	different	different	100	right	lower	left	upper	1	1438	ses-01	398
sub-011	2	15	crossed	different	different	800	right	upper	left	lower	1	1595	ses-01	399
sub-011	2	16	crossed	different	different	300	left	lower	right	upper	1	1870	ses-01	400
sub-011	2	17	crossed	same	same	800	left	lower	left	lower	1	1321	ses-01	401
sub-011	2	18	crossed	same	different	300	right	upper	right	lower	1	1640	ses-01	402
sub-011	2	19	crossed	different	same	100	right	lower	left	lower	1	1208	ses-01	403
sub-011	2	20	crossed	different	different	300	left	upper	right	lower	1	2472	ses-01	404
sub-011	2	21	crossed	same	different	800	left	lower	left	upper	1	1013	ses-01	405
sub-011	2	22	crossed	different	different	300	left	lower	right	upper	1	1131	ses-01	406
sub-011	2	23	crossed	different	different	50	left	upper	right	lower	0	1326	ses-01	407
sub-011	2	24	crossed	different	same	100	right	lower	left	lower	0	1065	ses-01	408
sub-011	2	25	crossed	different	different	300	right	lower	left	upper	1	2155	ses-01	409
sub-011	2	26	crossed	same	same	100	left	lower	left	lower	1	898	ses-01	410
sub-011	2	27	crossed	same	different	50	left	upper	left	lower	1	797	ses-01	411
sub-011	2	28	crossed	different	different	100	left	upper	right	lower	1	2288	ses-01	412
sub-011	2	29	crossed	same	different	300	left	lower	left	upper	1	1127	ses-01	413
sub-011	2	30	crossed	same	different	800	left	lower	left	upper	1	939	ses-01	414
sub-011	2	31	crossed	different	same	100	right	lower	left	lower	1	1733	ses-01	415
sub-011	2	32	crossed	different	same	50	left	lower	right	lower	1	1889	ses-01	416
sub-011	2	33	crossed	same	different	300	right	lower	right	upper	1	2408	ses-01	417
sub-011	2	34	crossed	different	same	800	left	lower	right	lower	1	801	ses-01	418
sub-011	2	35	crossed	same	same	800	right	lower	right	lower	1	904	ses-01	419
sub-011	2	36	crossed	same	different	100	right	upper	right	lower	1	1038	ses-01	420
sub-011	2	37	crossed	same	same	800	right	lower	right	lower	1	859	ses-01	421
sub-011	2	38	crossed	different	different	50	right	lower	left	upper	0	1106	ses-01	422
sub-011	2	39	crossed	different	same	800	left	lower	right	lower	0	1183	ses-01	423
sub-011	2	40	crossed	different	same	100	left	lower	right	lower	1	1358	ses-01	424
sub-011	2	41	crossed	same	different	800	right	upper	right	lower	1	1128	ses-01	425
sub-011	2	42	crossed	different	same	300	left	lower	right	lower	1	1733	ses-01	426
sub-011	2	43	crossed	different	different	800	right	lower	left	upper	1	1187	ses-01	427
sub-011	2	44	crossed	different	same	100	left	lower	right	lower	0	1328	ses-01	428
sub-011	2	45	crossed	same	different	300	right	upper	right	lower	1	1586	ses-01	429
sub-011	2	46	crossed	different	same	300	right	lower	left	lower	0	1450	ses-01	430
sub-011	2	47	crossed	different	same	800	right	lower	left	lower	1	1166	ses-01	431
sub-011	2	48	crossed	same	different	800	right	lower	right	upper	1	903	ses-01	432
sub-011	2	49	crossed	same	same	300	right	lower	right	lower	1	815	ses-01	433
sub-011	2	50	crossed	different	same	50	right	lower	left	lower	0	1454	ses-01	434
sub-011	2	51	crossed	same	different	800	right	upper	right	lower	1	881	ses-01	435
sub-011	2	52	crossed	different	same	800	left	lower	right	lower	1	1815	ses-01	436
sub-011	2	53	crossed	same	same	300	right	lower	right	lower	0	1826	ses-01	437
sub-011	2	54	crossed	same	same	50	right	lower	right	lower	1	1426	ses-01	438
sub-011	2	55	crossed	same	different	800	left	upper	left	lower	1	763	ses-01	439
sub-011	2	56	crossed	same	different	300	left	lower	left	upper	1	759	ses-01	440
sub-011	2	57	crossed	different	different	800	right	lower	left	upper	0	994	ses-01	441
sub-011	2	58	crossed	different	different	50	left	lower	right	upper	1	1322	ses-01	442
sub-011	2	59	crossed	different	different	300	left	lower	right	upper	1	920	ses-01	443
sub-011	2	60	crossed	same	same	50	left	lower	left	lower	1	812	ses-01	444
sub-011	2	61	crossed	different	same	800	right	lower	left	lower	0	1107	ses-01	445
sub-011	2	63	crossed	different	same	800	left	lower	right	lower	1	1047	ses-01	446
sub-011	2	64	crossed	same	different	100	right	upper	right	lower	1	1629	ses-01	447
sub-011	2	65	crossed	same	same	50	left	lower	left	lower	1	1126	ses-01	448
sub-011	2	66	crossed	same	same	300	left	lower	left	lower	1	965	ses-01	449
sub-011	2	67	crossed	different	same	300	right	lower	left	lower	1	908	ses-01	450
sub-011	2	68	crossed	same	different	800	right	upper	right	lower	1	1565	ses-01	451
sub-011	2	69	crossed	same	different	100	right	lower	right	upper	1	1319	ses-01	452
sub-011	2	70	crossed	same	same	50	left	lower	left	lower	1	926	ses-01	453
sub-011	2	71	crossed	same	different	50	left	lower	left	upper	1	726	ses-01	454
sub-011	2	72	crossed	different	same	50	right	lower	left	lower	1	1121	ses-01	455
sub-011	2	73	crossed	same	different	300	left	upper	left	lower	1	843	ses-01	456
sub-011	2	74	crossed	same	different	100	left	upper	left	lower	1	945	ses-01	457
sub-011	2	75	crossed	same	different	300	left	lower	left	upper	1	488	ses-01	458
sub-011	2	76	crossed	different	same	300	left	lower	right	lower	1	1162	ses-01	459
sub-011	2	77	crossed	different	different	100	left	upper	right	lower	1	1365	ses-01	460
sub-011	2	78	crossed	same	different	50	left	upper	left	lower	1	1512	ses-01	461
sub-011	2	79	crossed	different	different	800	left	lower	right	upper	1	1352	ses-01	462
sub-011	2	80	crossed	same	different	800	left	upper	left	lower	1	1159	ses-01	463
sub-011	2	81	crossed	different	different	100	right	upper	left	lower	1	996	ses-01	464
sub-011	2	82	crossed	different	different	50	right	upper	left	lower	0	2202	ses-01	465
sub-011	2	83	crossed	same	same	100	right	lower	right	lower	1	1065	ses-01	466
sub-011	2	84	crossed	same	same	50	left	lower	left	lower	1	894	ses-01	467
sub-011	2	85	crossed	different	same	50	left	lower	right	lower	1	1005	ses-01	468
sub-011	2	86	crossed	different	same	300	left	lower	right	lower	1	1833	ses-01	469
sub-011	2	87	crossed	different	same	100	right	lower	left	lower	1	1168	ses-01	470
sub-011	2	88	crossed	different	same	100	left	lower	right	lower	1	1447	ses-01	471
sub-011	2	89	crossed	different	different	300	right	upper	left	lower	1	952	ses-01	472
sub-011	2	90	crossed	different	different	300	left	upper	right	lower	0	1364	ses-01	473
sub-011	2	91	crossed	same	same	50	right	lower	right	lower	0	1938	ses-01	474
sub-011	2	92	crossed	different	different	800	left	upper	right	lower	1	1487	ses-01	475
sub-011	2	93	crossed	same	same	50	left	lower	left	lower	1	924	ses-01	476
sub-011	2	94	crossed	different	same	50	left	lower	right	lower	0	946	ses-01	477
sub-011	2	95	crossed	different	different	300	right	lower	left	upper	1	2095	ses-01	478
sub-011	2	96	crossed	different	different	50	right	lower	left	upper	0	1170	ses-01	479
sub-011	2	97	crossed	same	same	300	left	lower	left	lower	1	826	ses-01	480
sub-011	2	98	crossed	different	different	300	right	upper	left	lower	1	1461	ses-01	481
sub-011	2	99	crossed	different	same	800	left	lower	right	lower	0	1377	ses-01	482
sub-011	2	100	crossed	same	different	50	right	lower	right	upper	1	1967	ses-01	483
sub-011	2	101	crossed	same	same	800	left	lower	left	lower	1	766	ses-01	484
sub-011	2	102	crossed	same	different	300	left	lower	left	upper	0	1366	ses-01	485
sub-011	2	103	crossed	same	different	800	right	lower	right	upper	1	1287	ses-01	486
sub-011	2	104	crossed	different	different	300	left	upper	right	lower	0	1542	ses-01	487
sub-011	2	105	crossed	different	different	300	right	upper	left	lower	1	994	ses-01	488
sub-011	2	106	crossed	same	different	50	right	upper	right	lower	1	1814	ses-01	489
sub-011	2	107	crossed	different	same	100	left	lower	right	lower	0	1437	ses-01	490
sub-011	2	108	crossed	different	same	300	left	lower	right	lower	1	935	ses-01	491
sub-011	2	109	crossed	same	different	800	left	lower	left	upper	1	803	ses-01	492
sub-011	2	110	crossed	different	same	50	left	lower	right	lower	1	1265	ses-01	493
sub-011	2	111	crossed	same	same	800	left	lower	left	lower	1	916	ses-01	494
sub-011	2	112	crossed	different	same	50	right	lower	left	lower	1	1033	ses-01	495
sub-011	2	113	crossed	same	different	50	right	upper	right	lower	1	1924	ses-01	496
sub-011	2	114	crossed	same	same	100	right	lower	right	lower	1	1231	ses-01	497
sub-011	2	115	crossed	different	same	300	right	lower	left	lower	1	997	ses-01	498
sub-011	2	116	crossed	different	same	50	right	lower	left	lower	1	850	ses-01	499
sub-011	2	117	crossed	same	same	50	right	lower	right	lower	1	1653	ses-01	500
sub-011	2	118	crossed	same	different	50	left	upper	left	lower	1	1599	ses-01	501
sub-011	2	119	crossed	different	same	50	left	lower	right	lower	1	959	ses-01	502
sub-011	2	120	crossed	different	same	300	right	lower	left	lower	0	1846	ses-01	503
sub-011	2	121	crossed	same	same	50	right	lower	right	lower	0	1818	ses-01	504
sub-011	2	122	crossed	same	different	300	left	upper	left	lower	1	875	ses-01	505
sub-011	2	123	crossed	same	different	100	right	lower	right	upper	1	1587	ses-01	506
sub-011	2	124	crossed	same	same	300	left	lower	left	lower	1	586	ses-01	507
sub-011	2	125	crossed	same	different	100	left	lower	left	upper	1	1492	ses-01	508
sub-011	2	126	crossed	same	same	300	right	lower	right	lower	1	1856	ses-01	509
sub-011	2	127	crossed	same	same	300	right	lower	right	lower	0	812	ses-01	510
sub-011	2	128	crossed	different	different	800	left	lower	right	upper	1	1152	ses-01	511
sub-011	2	129	crossed	same	same	100	right	lower	right	lower	1	1261	ses-01	512
sub-011	2	130	crossed	same	same	300	left	lower	left	lower	1	1065	ses-01	513
sub-011	2	131	crossed	different	same	50	right	lower	left	lower	1	2478	ses-01	514
sub-011	2	132	crossed	different	different	100	right	upper	left	lower	1	2000	ses-01	515
sub-011	2	133	crossed	same	same	300	left	lower	left	lower	1	1185	ses-01	516
sub-011	2	134	crossed	different	different	100	right	lower	left	upper	1	1245	ses-01	517
sub-011	2	135	crossed	same	different	800	right	lower	right	upper	0	1338	ses-01	518
sub-011	2	136	crossed	same	different	300	left	upper	left	lower	1	934	ses-01	519
sub-011	2	137	crossed	same	same	800	left	lower	left	lower	1	732	ses-01	520
sub-011	2	138	crossed	different	same	100	left	lower	right	lower	1	1813	ses-01	521
sub-011	2	139	crossed	different	different	800	left	upper	right	lower	1	1628	ses-01	522
sub-011	2	140	crossed	different	same	300	right	lower	left	lower	1	1867	ses-01	523
sub-011	2	141	crossed	same	different	50	left	upper	left	lower	1	1270	ses-01	524
sub-011	2	142	crossed	same	different	800	left	upper	left	lower	1	810	ses-01	525
sub-011	2	143	crossed	same	same	300	right	lower	right	lower	1	1324	ses-01	526
sub-011	2	144	crossed	different	different	100	right	lower	left	upper	1	1388	ses-01	527
sub-011	2	145	crossed	same	same	50	right	lower	right	lower	1	1600	ses-01	528
sub-011	2	146	crossed	different	same	100	left	lower	right	lower	1	1614	ses-01	529
sub-011	2	147	crossed	different	same	300	right	lower	left	lower	1	1324	ses-01	530
sub-011	2	148	crossed	different	same	100	left	lower	right	lower	0	1284	ses-01	531
sub-011	2	149	crossed	different	same	300	left	lower	right	lower	1	1033	ses-01	532
sub-011	2	150	crossed	same	same	100	right	lower	right	lower	1	904	ses-01	533
sub-011	2	151	crossed	same	same	300	right	lower	right	lower	1	952	ses-01	534
sub-011	2	152	crossed	same	different	800	right	lower	right	upper	1	647	ses-01	535
sub-011	2	153	crossed	same	same	50	left	lower	left	lower	1	1187	ses-01	536
sub-011	2	154	crossed	same	different	100	left	upper	left	lower	1	844	ses-01	537
sub-011	2	155	crossed	same	same	100	left	lower	left	lower	1	781	ses-01	538
sub-011	2	156	crossed	different	different	800	right	lower	left	upper	1	997	ses-01	539
sub-011	2	157	crossed	different	different	300	left	lower	right	upper	0	1710	ses-01	540
sub-011	2	158	crossed	same	same	100	left	lower	left	lower	1	846	ses-01	541
sub-011	2	159	crossed	different	different	50	right	lower	left	upper	1	1575	ses-01	542
sub-011	2	160	crossed	different	different	50	right	lower	left	upper	0	2820	ses-01	543
sub-011	2	161	crossed	same	same	100	left	lower	left	lower	1	795	ses-01	544
sub-011	2	162	crossed	different	same	800	right	lower	left	lower	1	1067	ses-01	545
sub-011	2	163	crossed	same	different	50	right	upper	right	lower	1	1099	ses-01	546
sub-011	2	164	crossed	different	same	50	left	lower	right	lower	0	1742	ses-01	547
sub-011	2	165	crossed	same	different	800	left	lower	left	upper	1	1097	ses-01	548
sub-011	2	166	crossed	same	same	100	right	lower	right	lower	1	1146	ses-01	549
sub-011	2	167	crossed	different	different	100	right	upper	left	lower	1	739	ses-01	550
sub-011	2	168	crossed	different	same	800	right	lower	left	lower	1	760	ses-01	551
sub-011	2	169	crossed	same	different	300	right	upper	right	lower	1	1346	ses-01	552
sub-011	2	170	crossed	different	same	50	right	lower	left	lower	0	889	ses-01	553
sub-011	2	171	crossed	different	same	100	right	lower	left	lower	1	2225	ses-01	554
sub-011	2	172	crossed	same	same	50	left	lower	left	lower	1	748	ses-01	555
sub-011	2	173	crossed	different	same	800	right	lower	left	lower	0	1048	ses-01	556
sub-011	2	174	crossed	same	same	300	right	lower	right	lower	1	997	ses-01	557
sub-011	2	175	crossed	same	different	50	left	upper	left	lower	1	850	ses-01	558
sub-011	2	176	crossed	same	different	300	right	upper	right	lower	1	1553	ses-01	559
sub-011	2	177	crossed	different	same	800	right	lower	left	lower	1	1069	ses-01	560
sub-011	2	178	crossed	different	same	100	left	lower	right	lower	1	1265	ses-01	561
sub-011	2	179	crossed	different	different	50	left	lower	right	upper	1	775	ses-01	562
sub-011	2	180	crossed	same	different	100	left	lower	left	upper	1	890	ses-01	563
sub-011	2	181	crossed	different	different	50	right	upper	left	lower	1	874	ses-01	564
sub-011	2	182	crossed	same	same	300	left	lower	left	lower	1	1758	ses-01	565
sub-011	2	183	crossed	different	different	300	right	lower	left	upper	1	936	ses-01	566
sub-011	2	184	crossed	different	same	300	right	lower	left	lower	1	1389	ses-01	567
sub-011	2	185	crossed	same	different	50	left	lower	left	upper	1	796	ses-01	568
sub-011	2	186	crossed	same	same	50	right	lower	right	lower	1	1724	ses-01	569
sub-011	2	187	crossed	same	same	50	left	lower	left	lower	1	1121	ses-01	570
sub-011	2	188	crossed	same	different	300	left	lower	left	upper	1	703	ses-01	571
sub-011	2	189	crossed	same	same	100	left	lower	left	lower	1	723	ses-01	572
sub-011	2	190	crossed	same	same	800	left	lower	left	lower	1	686	ses-01	573
sub-011	2	191	crossed	different	different	800	right	upper	left	lower	1	717	ses-01	574
sub-011	2	192	crossed	same	different	100	left	lower	left	upper	1	738	ses-01	575
sub-011	2	193	crossed	different	different	800	right	lower	left	upper	1	808	ses-01	576
sub-011	2	194	crossed	different	different	50	right	lower	left	upper	0	1779	ses-01	577
sub-011	2	195	crossed	same	same	300	left	lower	left	lower	1	964	ses-01	578
sub-011	2	196	crossed	different	same	100	left	lower	right	lower	0	1086	ses-01	579
sub-011	2	197	crossed	same	same	50	left	lower	left	lower	1	1040	ses-01	580
sub-011	2	198	crossed	different	same	50	right	lower	left	lower	1	1403	ses-01	581
sub-011	2	199	crossed	different	same	800	left	lower	right	lower	1	830	ses-01	582
sub-011	2	200	crossed	different	different	800	right	upper	left	lower	1	1054	ses-01	583
sub-011	2	201	crossed	same	different	50	right	upper	right	lower	0	2115	ses-01	584
sub-011	2	202	crossed	different	different	50	right	upper	left	lower	1	1012	ses-01	585
sub-011	2	203	crossed	different	different	800	left	lower	right	upper	1	807	ses-01	586
sub-011	2	204	crossed	same	same	300	left	lower	left	lower	1	881	ses-01	587
sub-011	2	205	crossed	different	different	800	right	upper	left	lower	1	783	ses-01	588
sub-011	2	206	crossed	same	same	300	left	lower	left	lower	1	807	ses-01	589
sub-011	2	207	crossed	same	different	800	right	lower	right	upper	1	2001	ses-01	590
sub-011	2	208	crossed	different	different	100	left	lower	right	upper	1	1421	ses-01	591
sub-011	2	209	crossed	same	different	100	left	upper	left	lower	1	892	ses-01	592
sub-011	2	210	crossed	different	same	50	right	lower	left	lower	1	1596	ses-01	593
sub-011	2	211	crossed	same	different	300	left	lower	left	upper	1	684	ses-01	594
sub-011	2	212	crossed	different	same	800	right	lower	left	lower	1	1662	ses-01	595
sub-011	2	213	crossed	different	different	100	left	upper	right	lower	0	2530	ses-01	596
sub-011	2	214	crossed	same	same	100	left	lower	left	lower	1	807	ses-01	597
sub-011	2	215	crossed	same	different	50	left	lower	left	upper	1	1380	ses-01	598
sub-011	2	216	crossed	same	different	100	right	lower	right	upper	1	1072	ses-01	599
sub-011	2	217	crossed	same	different	50	right	lower	right	upper	1	761	ses-01	600
sub-011	2	218	crossed	different	different	800	left	upper	right	lower	1	1324	ses-01	601
sub-011	2	219	crossed	different	same	100	left	lower	right	lower	0	1109	ses-01	602
sub-011	2	220	crossed	different	same	300	left	lower	right	lower	1	913	ses-01	603
sub-011	2	221	crossed	different	different	100	left	lower	right	upper	1	978	ses-01	604
sub-011	2	222	crossed	same	different	300	right	lower	right	upper	1	1632	ses-01	605
sub-011	2	223	crossed	different	same	100	right	lower	left	lower	0	909	ses-01	606
sub-011	2	224	crossed	different	same	300	left	lower	right	lower	1	756	ses-01	607
sub-011	2	225	crossed	same	same	50	left	lower	left	lower	0	1255	ses-01	608
sub-011	2	226	crossed	same	different	800	left	upper	left	lower	1	867	ses-01	609
sub-011	2	227	crossed	same	different	800	left	lower	left	upper	1	988	ses-01	610
sub-011	2	228	crossed	same	same	300	left	lower	left	lower	1	874	ses-01	611
sub-011	2	229	crossed	different	different	50	left	lower	right	upper	1	1292	ses-01	612
sub-011	2	230	crossed	same	same	800	left	lower	left	lower	1	754	ses-01	613
sub-011	2	231	crossed	different	same	300	left	lower	right	lower	1	1857	ses-01	614
sub-011	2	232	crossed	same	different	50	right	lower	right	upper	1	1306	ses-01	615
sub-011	2	233	crossed	different	same	50	left	lower	right	lower	1	1324	ses-01	616
sub-011	2	234	crossed	different	same	300	right	lower	left	lower	0	1014	ses-01	617
sub-011	2	235	crossed	same	same	800	right	lower	right	lower	1	907	ses-01	618
sub-011	2	236	crossed	same	different	300	right	upper	right	lower	0	1177	ses-01	619
sub-011	2	237	crossed	same	different	50	left	upper	left	lower	1	833	ses-01	620
sub-011	2	238	crossed	different	different	50	right	lower	left	upper	0	1313	ses-01	621
sub-011	2	239	crossed	same	different	100	right	lower	right	upper	1	931	ses-01	622
sub-011	2	240	crossed	same	different	300	right	lower	right	upper	1	794	ses-01	623
sub-011	2	241	crossed	different	same	50	right	lower	left	lower	0	1022	ses-01	624
sub-011	2	243	crossed	different	different	300	left	lower	right	upper	1	910	ses-01	625
sub-011	2	244	crossed	different	same	800	left	lower	right	lower	1	1486	ses-01	626
sub-011	2	245	crossed	different	same	300	right	lower	left	lower	1	1612	ses-01	627
sub-011	2	246	crossed	same	different	800	left	upper	left	lower	0	1514	ses-01	628
sub-011	2	247	crossed	different	different	800	left	lower	right	upper	1	2083	ses-01	629
sub-011	2	248	crossed	different	same	300	right	lower	left	lower	0	1012	ses-01	630
sub-011	2	249	crossed	different	different	100	left	lower	right	upper	1	969	ses-01	631
sub-011	2	250	crossed	same	same	100	right	lower	right	lower	1	1440	ses-01	632
sub-011	2	251	crossed	same	different	300	right	lower	right	upper	0	1655	ses-01	633
sub-011	2	252	crossed	same	same	100	right	lower	right	lower	1	877	ses-01	634
sub-011	2	253	crossed	different	same	800	right	lower	left	lower	1	805	ses-01	635
sub-011	2	254	crossed	different	different	100	right	lower	left	upper	1	1638	ses-01	636
sub-011	2	255	crossed	same	different	100	right	upper	right	lower	1	882	ses-01	637
sub-011	2	256	crossed	different	same	300	right	lower	left	lower	1	822	ses-01	638
sub-011	2	257	crossed	different	different	100	right	upper	left	lower	1	1740	ses-01	639
sub-011	2	258	crossed	same	same	800	left	lower	left	lower	1	877	ses-01	640
sub-011	2	259	crossed	different	same	800	right	lower	left	lower	1	1137	ses-01	641
sub-011	2	260	crossed	same	same	100	right	lower	right	lower	1	1834	ses-01	642
sub-011	2	261	crossed	different	different	50	left	lower	right	upper	1	906	ses-01	643
sub-011	2	262	crossed	same	same	100	left	lower	left	lower	1	805	ses-01	644
sub-011	2	263	crossed	same	different	800	left	upper	left	lower	1	662	ses-01	645
sub-011	2	264	crossed	same	different	50	left	lower	left	upper	1	696	ses-01	646
sub-011	2	265	crossed	same	same	800	left	lower	left	lower	1	800	ses-01	647
sub-011	2	266	crossed	different	different	100	left	upper	right	lower	1	1127	ses-01	648
sub-011	2	267	crossed	different	same	100	left	lower	right	lower	0	1743	ses-01	649
sub-011	2	268	crossed	same	same	50	right	lower	right	lower	1	1023	ses-01	650
sub-011	2	269	crossed	same	different	300	right	upper	right	lower	1	850	ses-01	651
sub-011	2	270	crossed	different	same	50	right	lower	left	lower	1	919	ses-01	652
sub-011	2	271	crossed	different	same	800	left	lower	right	lower	0	1692	ses-01	653
sub-011	2	272	crossed	same	same	50	right	lower	right	lower	1	1338	ses-01	654
sub-011	2	273	crossed	same	same	100	left	lower	left	lower	1	727	ses-01	655
sub-011	2	274	crossed	different	different	50	left	lower	right	upper	0	1559	ses-01	656
sub-011	2	275	crossed	different	same	800	right	lower	left	lower	1	688	ses-01	657
sub-011	2	276	crossed	different	different	300	left	upper	right	lower	1	1425	ses-01	658
sub-011	2	277	crossed	different	different	300	right	upper	left	lower	1	700	ses-01	659
sub-011	2	278	crossed	same	different	100	left	lower	left	upper	1	999	ses-01	660
sub-011	2	279	crossed	same	different	300	left	upper	left	lower	1	1645	ses-01	661
sub-011	2	280	crossed	different	same	300	right	lower	left	lower	0	1210	ses-01	662
sub-011	2	281	crossed	same	different	800	right	upper	right	lower	1	1606	ses-01	663
sub-011	2	282	crossed	different	same	100	left	lower	right	lower	1	1147	ses-01	664
sub-011	2	283	crossed	same	different	50	left	lower	left	upper	1	748	ses-01	665
sub-011	2	284	crossed	different	different	800	left	lower	right	upper	0	141	ses-01	666
sub-011	2	285	crossed	different	different	50	right	upper	left	lower	1	1193	ses-01	667
sub-011	2	286	crossed	different	same	100	right	lower	left	lower	1	1174	ses-01	668
sub-011	2	287	crossed	same	same	100	left	lower	left	lower	1	809	ses-01	669
sub-011	2	288	crossed	same	different	100	right	lower	right	upper	1	1423	ses-01	670
sub-011	2	289	crossed	same	same	100	left	lower	left	lower	1	843	ses-01	671
sub-011	2	290	crossed	different	same	100	right	lower	left	lower	1	1513	ses-01	672
sub-011	2	291	crossed	same	same	300	left	lower	left	lower	1	650	ses-01	673
sub-011	2	292	crossed	different	different	50	right	upper	left	lower	1	1019	ses-01	674
sub-011	2	293	crossed	same	same	100	right	lower	right	lower	1	1089	ses-01	675
sub-011	2	294	crossed	different	different	50	left	upper	right	lower	1	949	ses-01	676
sub-011	2	295	crossed	same	same	100	right	lower	right	lower	1	1244	ses-01	677
sub-011	2	296	crossed	same	same	800	right	lower	right	lower	1	898	ses-01	678
sub-011	2	297	crossed	same	different	800	right	lower	right	upper	1	763	ses-01	679
sub-011	2	298	crossed	same	same	800	right	lower	right	lower	0	1303	ses-01	680
sub-011	2	299	crossed	same	same	800	right	lower	right	lower	0	2130	ses-01	681
sub-011	2	300	crossed	different	same	50	left	lower	right	lower	0	2184	ses-01	682
sub-011	2	301	crossed	same	different	50	right	lower	right	upper	1	1012	ses-01	683
sub-011	2	302	crossed	different	different	300	right	lower	left	upper	0	1731	ses-01	684
sub-011	2	303	crossed	same	same	300	right	lower	right	lower	1	1586	ses-01	685
sub-011	2	304	crossed	different	different	300	left	upper	right	lower	0	1652	ses-01	686
sub-011	2	305	crossed	different	same	50	left	lower	right	lower	1	1597	ses-01	687
sub-011	2	306	crossed	different	same	800	left	lower	right	lower	1	1035	ses-01	688
sub-011	2	307	crossed	different	different	800	right	upper	left	lower	1	593	ses-01	689
sub-011	2	308	crossed	same	different	100	right	upper	right	lower	0	1070	ses-01	690
sub-011	2	309	crossed	different	same	300	left	lower	right	lower	0	1301	ses-01	691
sub-011	2	310	crossed	same	same	800	left	lower	left	lower	1	734	ses-01	692
sub-011	2	311	crossed	same	different	300	left	upper	left	lower	1	720	ses-01	693
sub-011	2	312	crossed	same	same	800	right	lower	right	lower	1	866	ses-01	694
sub-011	2	313	crossed	same	same	100	right	lower	right	lower	1	843	ses-01	695
sub-011	2	314	crossed	same	different	100	left	upper	left	lower	1	1034	ses-01	696
sub-011	2	315	crossed	same	same	300	right	lower	right	lower	1	852	ses-01	697
sub-011	2	316	crossed	different	same	100	right	lower	left	lower	0	1283	ses-01	698
sub-011	2	317	crossed	different	different	50	left	upper	right	lower	1	1188	ses-01	699
sub-011	2	318	crossed	same	same	50	right	lower	right	lower	1	2148	ses-01	700
sub-011	2	319	crossed	different	different	50	right	upper	left	lower	1	1230	ses-01	701
sub-011	2	320	crossed	same	different	300	right	lower	right	upper	0	894	ses-01	702
sub-011	2	321	crossed	different	different	50	left	upper	right	lower	0	1657	ses-01	703
sub-011	2	322	crossed	same	same	300	left	lower	left	lower	1	759	ses-01	704
sub-011	2	323	crossed	different	same	800	left	lower	right	lower	1	2105	ses-01	705
sub-011	2	324	crossed	different	different	800	left	lower	right	upper	1	1165	ses-01	706
sub-011	2	325	crossed	different	same	800	right	lower	left	lower	1	1008	ses-01	707
sub-011	2	326	crossed	same	same	800	right	lower	right	lower	1	1241	ses-01	708
sub-011	2	327	crossed	different	different	100	right	lower	left	upper	0	2057	ses-01	709
sub-011	2	328	crossed	same	same	800	left	lower	left	lower	1	889	ses-01	710
sub-011	2	329	crossed	different	same	300	left	lower	right	lower	0	1067	ses-01	711
sub-011	2	330	crossed	different	same	50	right	lower	left	lower	1	1211	ses-01	712
sub-011	2	331	crossed	different	same	100	right	lower	left	lower	0	1654	ses-01	713
sub-011	2	332	crossed	same	same	800	right	lower	right	lower	0	1410	ses-01	714
sub-011	2	333	crossed	same	different	300	right	lower	right	upper	0	1289	ses-01	715
sub-011	2	334	crossed	same	same	100	right	lower	right	lower	1	1305	ses-01	716
sub-011	2	335	crossed	same	same	50	left	lower	left	lower	1	913	ses-01	717
sub-011	2	336	crossed	same	different	100	left	upper	left	lower	1	967	ses-01	718
sub-011	2	337	crossed	different	different	800	left	upper	right	lower	1	1137	ses-01	719
sub-011	2	338	crossed	different	different	100	left	upper	right	lower	0	915	ses-01	720
sub-011	2	339	crossed	different	different	800	right	lower	left	upper	1	1038	ses-01	721
sub-011	2	340	crossed	different	same	50	left	lower	right	lower	1	1204	ses-01	722
sub-011	2	341	crossed	different	different	100	left	lower	right	upper	1	1145	ses-01	723
sub-011	2	342	crossed	different	same	50	right	lower	left	lower	1	977	ses-01	724
sub-011	2	343	crossed	different	different	300	right	upper	left	lower	1	1227	ses-01	725
sub-011	2	344	crossed	different	different	100	right	upper	left	lower	1	1029	ses-01	726
sub-011	2	345	crossed	different	different	50	left	upper	right	lower	0	1247	ses-01	727
sub-011	2	346	crossed	same	different	100	left	lower	left	upper	1	913	ses-01	728
sub-011	2	347	crossed	different	different	800	right	upper	left	lower	1	1653	ses-01	729
sub-011	2	348	crossed	same	different	800	right	upper	right	lower	1	1395	ses-01	730
sub-011	2	349	crossed	same	different	50	right	upper	right	lower	1	1040	ses-01	731
sub-011	2	350	crossed	same	same	50	right	lower	right	lower	1	849	ses-01	732
sub-011	2	351	crossed	different	different	100	right	upper	left	lower	1	1476	ses-01	733
sub-011	2	352	crossed	different	different	300	left	upper	right	lower	0	1345	ses-01	734
sub-011	2	353	crossed	different	same	50	left	lower	right	lower	1	1678	ses-01	735
sub-011	2	354	crossed	different	different	800	left	upper	right	lower	1	914	ses-01	736
sub-011	2	355	crossed	same	different	50	left	lower	left	upper	1	1350	ses-01	737
sub-011	2	356	crossed	same	different	100	left	lower	left	upper	1	791	ses-01	738
sub-011	2	357	crossed	same	same	800	left	lower	left	lower	1	890	ses-01	739
sub-011	2	358	crossed	same	same	300	right	lower	right	lower	1	1021	ses-01	740
sub-011	2	359	crossed	different	same	800	right	lower	left	lower	1	890	ses-01	741
sub-011	2	360	crossed	same	same	800	left	lower	left	lower	1	797	ses-01	742
sub-011	2	361	crossed	same	same	50	right	lower	right	lower	1	1432	ses-01	743
sub-011	2	362	crossed	different	different	300	left	lower	right	upper	1	1015	ses-01	744
sub-011	2	363	crossed	different	same	300	left	lower	right	lower	0	1395	ses-01	745
sub-011	2	364	crossed	different	different	100	left	lower	right	upper	1	1115	ses-01	746
sub-011	2	365	crossed	same	different	100	right	upper	right	lower	1	1032	ses-01	747
sub-011	2	366	crossed	same	different	800	left	lower	left	upper	1	736	ses-01	748
sub-011	2	367	crossed	same	same	50	left	lower	left	lower	1	1399	ses-01	749
sub-011	2	368	crossed	different	different	50	left	lower	right	upper	1	1306	ses-01	750
sub-011	2	369	crossed	same	same	50	right	lower	right	lower	1	1062	ses-01	751
sub-011	2	370	crossed	different	different	800	left	upper	right	lower	1	1428	ses-01	752
sub-011	2	371	crossed	different	different	800	right	lower	left	upper	1	1112	ses-01	753
sub-011	2	372	crossed	same	different	100	right	upper	right	lower	0	1193	ses-01	754
sub-011	2	373	crossed	same	same	300	right	lower	right	lower	1	1119	ses-01	755
sub-011	2	374	crossed	different	same	100	right	lower	left	lower	1	1185	ses-01	756
sub-011	2	375	crossed	same	different	50	right	upper	right	lower	1	1144	ses-01	757
sub-011	2	376	crossed	same	different	50	right	lower	right	upper	1	937	ses-01	758
sub-011	2	377	crossed	same	different	100	right	lower	right	upper	1	917	ses-01	759
sub-011	2	378	crossed	same	different	300	left	upper	left	lower	1	892	ses-01	760
sub-011	2	379	crossed	same	different	800	right	upper	right	lower	1	1570	ses-01	761
sub-011	2	380	crossed	different	different	300	right	upper	left	lower	1	1165	ses-01	762
sub-011	2	381	crossed	same	different	100	left	upper	left	lower	1	868	ses-01	763
sub-011	2	382	crossed	same	same	800	right	lower	right	lower	1	1164	ses-01	764
sub-011	2	383	crossed	same	same	300	right	lower	right	lower	1	1630	ses-01	765
sub-011	2	384	crossed	same	same	100	left	lower	left	lower	1	741	ses-01	766
sub-011	2	385	crossed	different	same	800	left	lower	right	lower	1	1081	ses-01	767
sub-011	2	386	crossed	different	same	800	left	lower	right	lower	1	1170	ses-01	768
sub-011	1	1	uncrossed	same	same	50	right	lower	right	lower	1	1180	ses-01	769
sub-011	1	2	uncrossed	different	same	300	left	lower	right	lower	1	929	ses-01	770
sub-011	1	4	uncrossed	same	same	50	left	lower	left	lower	1	438	ses-01	771
sub-011	1	5	uncrossed	same	same	50	left	lower	left	lower	1	515	ses-01	772
sub-011	1	6	uncrossed	same	different	300	left	lower	left	upper	1	274	ses-01	773
sub-011	1	7	uncrossed	different	same	100	left	lower	right	lower	0	526	ses-01	774
sub-011	1	8	uncrossed	same	same	50	right	lower	right	lower	1	762	ses-01	775
sub-011	1	9	uncrossed	different	different	100	right	lower	left	upper	1	525	ses-01	776
sub-011	1	11	uncrossed	different	same	100	left	lower	right	lower	0	548	ses-01	777
sub-011	1	12	uncrossed	different	same	100	right	lower	left	lower	1	609	ses-01	778
sub-011	1	13	uncrossed	same	different	100	right	lower	right	upper	1	739	ses-01	779
sub-011	1	14	uncrossed	different	different	300	right	lower	left	upper	1	785	ses-01	780
sub-011	1	15	uncrossed	different	different	100	right	lower	left	upper	1	489	ses-01	781
sub-011	1	16	uncrossed	same	same	300	right	lower	right	lower	1	680	ses-01	782
sub-011	1	17	uncrossed	same	same	50	left	lower	left	lower	1	717	ses-01	783
sub-011	1	18	uncrossed	same	different	50	left	upper	left	lower	1	698	ses-01	784
sub-011	1	19	uncrossed	same	same	300	right	lower	right	lower	1	908	ses-01	785
sub-011	1	20	uncrossed	same	different	50	right	upper	right	lower	1	830	ses-01	786
sub-011	1	21	uncrossed	different	same	50	left	lower	right	lower	1	844	ses-01	787
sub-011	1	22	uncrossed	different	different	50	left	upper	right	lower	1	768	ses-01	788
sub-011	1	24	uncrossed	different	different	50	right	upper	left	lower	1	879	ses-01	789
sub-011	1	25	uncrossed	different	different	100	left	lower	right	upper	1	635	ses-01	790
sub-011	1	26	uncrossed	same	same	50	right	lower	right	lower	1	823	ses-01	791
sub-011	1	27	uncrossed	different	same	300	right	lower	left	lower	1	841	ses-01	792
sub-011	1	28	uncrossed	same	different	50	right	upper	right	lower	1	800	ses-01	793
sub-011	1	30	uncrossed	different	different	800	left	upper	right	lower	0	156	ses-01	794
sub-011	1	31	uncrossed	same	different	100	right	lower	right	upper	1	901	ses-01	795
sub-011	1	32	uncrossed	different	same	300	left	lower	right	lower	1	884	ses-01	796
sub-011	1	33	uncrossed	different	same	100	right	lower	left	lower	1	673	ses-01	797
sub-011	1	34	uncrossed	same	different	300	left	upper	left	lower	1	680	ses-01	798
sub-011	1	35	uncrossed	same	different	800	left	lower	left	upper	1	654	ses-01	799
sub-011	1	36	uncrossed	different	same	50	right	lower	left	lower	1	818	ses-01	800
sub-011	1	37	uncrossed	different	same	100	right	lower	left	lower	1	702	ses-01	801
sub-011	1	38	uncrossed	different	same	50	left	lower	right	lower	1	732	ses-01	802
sub-011	1	39	uncrossed	different	same	100	right	lower	left	lower	1	589	ses-01	803
sub-011	1	40	uncrossed	different	different	800	right	lower	left	upper	0	106	ses-01	804
sub-011	1	41	uncrossed	same	same	300	left	lower	left	lower	1	842	ses-01	805
sub-011	1	42	uncrossed	different	different	800	right	upper	left	lower	1	916	ses-01	806
sub-011	1	43	uncrossed	same	different	50	right	upper	right	lower	1	1158	ses-01	807
sub-011	1	44	uncrossed	different	different	100	right	upper	left	lower	1	984	ses-01	808
sub-011	1	45	uncrossed	same	different	800	left	upper	left	lower	1	729	ses-01	809
sub-011	1	46	uncrossed	different	different	100	left	lower	right	upper	1	891	ses-01	810
sub-011	1	47	uncrossed	same	different	50	right	upper	right	lower	1	886	ses-01	811
sub-011	1	48	uncrossed	different	different	800	left	lower	right	upper	1	782	ses-01	812
sub-011	1	49	uncrossed	same	same	300	left	lower	left	lower	1	892	ses-01	813
sub-011	1	51	uncrossed	different	different	800	right	upper	left	lower	1	674	ses-01	814
sub-011	1	52	uncrossed	same	same	50	right	lower	right	lower	1	1100	ses-01	815
sub-011	1	53	uncrossed	different	different	300	right	lower	left	upper	1	619	ses-01	816
sub-011	1	54	uncrossed	different	different	300	right	upper	left	lower	1	650	ses-01	817
sub-011	1	55	uncrossed	same	same	100	left	lower	left	lower	1	878	ses-01	818
sub-011	1	56	uncrossed	different	same	800	left	lower	right	lower	1	791	ses-01	819
sub-011	1	57	uncrossed	same	different	50	right	lower	right	upper	1	1221	ses-01	820
sub-011	1	58	uncrossed	same	different	100	left	lower	left	upper	1	1603	ses-01	821
sub-011	1	59	uncrossed	same	different	800	left	upper	left	lower	1	705	ses-01	822
sub-011	1	60	uncrossed	different	same	50	right	lower	left	lower	1	766	ses-01	823
sub-011	1	61	uncrossed	same	different	50	right	lower	right	upper	1	1110	ses-01	824
sub-011	1	62	uncrossed	different	same	800	left	lower	right	lower	1	906	ses-01	825
sub-011	1	63	uncrossed	same	same	800	right	lower	right	lower	1	793	ses-01	826
sub-011	1	64	uncrossed	different	same	800	right	lower	left	lower	1	726	ses-01	827
sub-011	1	65	uncrossed	different	different	50	left	lower	right	upper	1	1602	ses-01	828
sub-011	1	66	uncrossed	same	same	50	right	lower	right	lower	1	948	ses-01	829
sub-011	1	67	uncrossed	same	different	50	right	upper	right	lower	1	1402	ses-01	830
sub-011	1	68	uncrossed	different	different	800	right	lower	left	upper	1	685	ses-01	831
sub-011	1	69	uncrossed	same	different	800	right	upper	right	lower	1	753	ses-01	832
sub-011	1	70	uncrossed	different	same	300	right	lower	left	lower	1	707	ses-01	833
sub-011	1	71	uncrossed	same	same	800	right	lower	right	lower	1	715	ses-01	834
sub-011	1	72	uncrossed	same	same	300	right	lower	right	lower	1	1002	ses-01	835
sub-011	1	73	uncrossed	same	same	800	right	lower	right	lower	1	679	ses-01	836
sub-011	1	74	uncrossed	different	different	50	right	lower	left	upper	1	681	ses-01	837
sub-011	1	75	uncrossed	different	same	50	left	lower	right	lower	1	1065	ses-01	838
sub-011	1	76	uncrossed	different	same	800	left	lower	right	lower	1	766	ses-01	839
sub-011	1	77	uncrossed	same	different	300	left	lower	left	upper	1	1282	ses-01	840
sub-011	1	78	uncrossed	different	different	50	right	lower	left	upper	1	1260	ses-01	841
sub-011	1	79	uncrossed	different	same	800	left	lower	right	lower	1	879	ses-01	842
sub-011	1	80	uncrossed	same	same	800	right	lower	right	lower	1	712	ses-01	843
sub-011	1	81	uncrossed	different	different	100	right	lower	left	upper	1	932	ses-01	844
sub-011	1	82	uncrossed	same	different	100	right	upper	right	lower	1	963	ses-01	845
sub-011	1	83	uncrossed	same	different	100	right	lower	right	upper	1	981	ses-01	846
sub-011	1	84	uncrossed	different	same	50	right	lower	left	lower	1	851	ses-01	847
sub-011	1	85	uncrossed	same	same	100	right	lower	right	lower	1	1085	ses-01	848
sub-011	1	86	uncrossed	different	different	300	right	upper	left	lower	1	727	ses-01	849
sub-011	1	87	uncrossed	different	same	100	right	lower	left	lower	1	832	ses-01	850
sub-011	1	88	uncrossed	same	same	800	right	lower	right	lower	1	639	ses-01	851
sub-011	1	89	uncrossed	different	different	100	right	lower	left	upper	1	711	ses-01	852
sub-011	1	90	uncrossed	same	different	800	left	upper	left	lower	1	1024	ses-01	853
sub-011	1	91	uncrossed	different	different	100	left	upper	right	lower	1	948	ses-01	854
sub-011	1	92	uncrossed	same	different	300	right	upper	right	lower	1	719	ses-01	855
sub-011	1	93	uncrossed	same	same	100	left	lower	left	lower	1	1080	ses-01	856
sub-011	1	94	uncrossed	same	different	800	right	upper	right	lower	1	722	ses-01	857
sub-011	1	95	uncrossed	same	same	100	right	lower	right	lower	1	907	ses-01	858
sub-011	1	96	uncrossed	same	same	50	right	lower	right	lower	1	1164	ses-01	859
sub-011	1	97	uncrossed	same	same	100	left	lower	left	lower	1	1097	ses-01	860
sub-011	1	98	uncrossed	different	same	50	right	lower	left	lower	1	666	ses-01	861
sub-011	1	99	uncrossed	same	same	300	left	lower	left	lower	1	729	ses-01	862
sub-011	1	100	uncrossed	same	same	800	left	lower	left	lower	1	244	ses-01	863
sub-011	1	101	uncrossed	different	same	800	right	lower	left	lower	1	696	ses-01	864
sub-011	1	102	uncrossed	different	different	300	left	lower	right	upper	1	647	ses-01	865
sub-011	1	103	uncrossed	same	different	300	left	upper	left	lower	1	812	ses-01	866
sub-011	1	104	uncrossed	same	same	300	right	lower	right	lower	1	947	ses-01	867
sub-011	1	105	uncrossed	different	same	300	right	lower	left	lower	1	664	ses-01	868
sub-011	1	106	uncrossed	same	same	800	left	lower	left	lower	1	694	ses-01	869
sub-011	1	107	uncrossed	same	same	100	right	lower	right	lower	1	1257	ses-01	870
sub-011	1	108	uncrossed	same	different	100	left	lower	left	upper	1	1010	ses-01	871
sub-011	1	109	uncrossed	different	same	300	left	lower	right	lower	1	774	ses-01	872
sub-011	1	110	uncrossed	same	same	800	left	lower	left	lower	1	445	ses-01	873
sub-011	1	111	uncrossed	same	different	300	left	lower	left	upper	1	895	ses-01	874
sub-011	1	112	uncrossed	same	different	800	left	lower	left	upper	1	687	ses-01	875
sub-011	1	113	uncrossed	same	different	100	left	lower	left	upper	1	1353	ses-01	876
sub-011	1	114	uncrossed	same	different	100	left	upper	left	lower	1	957	ses-01	877
sub-011	1	115	uncrossed	same	same	300	left	lower	left	lower	1	1001	ses-01	878
sub-011	1	116	uncrossed	same	different	300	right	lower	right	upper	1	1256	ses-01	879
sub-011	1	117	uncrossed	different	different	50	left	upper	right	lower	1	720	ses-01	880
sub-011	1	118	uncrossed	different	same	800	left	lower	right	lower	1	748	ses-01	881
sub-011	1	119	uncrossed	same	same	800	right	lower	right	lower	1	386	ses-01	882
sub-011	1	120	uncrossed	different	same	50	right	lower	left	lower	1	921	ses-01	883
sub-011	1	121	uncrossed	different	different	300	right	lower	left	upper	1	517	ses-01	884
sub-011	1	122	uncrossed	different	same	50	left	lower	right	lower	1	911	ses-01	885
sub-011	1	123	uncrossed	same	same	800	left	lower	left	lower	1	872	ses-01	886
sub-011	1	124	uncrossed	same	same	100	left	lower	left	lower	1	1356	ses-01	887
sub-011	1	125	uncrossed	different	different	800	left	upper	right	lower	1	841	ses-01	888
sub-011	1	126	uncrossed	same	same	50	right	lower	right	lower	1	1038	ses-01	889
sub-011	1	127	uncrossed	different	same	800	right	lower	left	lower	1	835	ses-01	890
sub-011	1	128	uncrossed	same	same	50	right	lower	right	lower	1	1260	ses-01	891
sub-011	1	129	uncrossed	same	same	100	left	lower	left	lower	1	1446	ses-01	892
sub-011	1	130	uncrossed	same	different	50	left	lower	left	upper	1	623	ses-01	893
sub-011	1	131	uncrossed	different	same	800	left	lower	right	lower	1	849	ses-01	894
sub-011	1	132	uncrossed	same	same	100	left	lower	left	lower	1	938	ses-01	895
sub-011	1	133	uncrossed	different	same	100	right	lower	left	lower	1	852	ses-01	896
sub-011	1	134	uncrossed	same	different	100	right	upper	right	lower	1	982	ses-01	897
sub-011	1	135	uncrossed	same	same	50	right	lower	right	lower	1	839	ses-01	898
sub-011	1	136	uncrossed	different	different	50	left	upper	right	lower	1	764	ses-01	899
sub-011	1	137	uncrossed	same	same	100	right	lower	right	lower	1	821	ses-01	900
sub-011	1	138	uncrossed	same	same	300	left	lower	left	lower	1	962	ses-01	901
sub-011	1	139	uncrossed	same	same	100	left	lower	left	lower	1	724	ses-01	902
sub-011	1	140	uncrossed	different	different	50	left	upper	right	lower	1	816	ses-01	903
sub-011	1	141	uncrossed	different	same	300	right	lower	left	lower	1	654	ses-01	904
sub-011	1	142	uncrossed	different	different	800	left	lower	right	upper	1	735	ses-01	905
sub-011	1	143	uncrossed	different	same	300	right	lower	left	lower	1	504	ses-01	906
sub-011	1	144	uncrossed	different	same	100	right	lower	left	lower	1	498	ses-01	907
sub-011	1	145	uncrossed	same	different	50	left	lower	left	upper	1	864	ses-01	908
sub-011	1	146	uncrossed	same	different	800	right	lower	right	upper	1	263	ses-01	909
sub-011	1	147	uncrossed	different	different	300	right	lower	left	upper	1	781	ses-01	910
sub-011	1	148	uncrossed	different	same	50	left	lower	right	lower	1	642	ses-01	911
sub-011	1	149	uncrossed	same	same	50	left	lower	left	lower	1	971	ses-01	912
sub-011	1	150	uncrossed	different	different	50	left	lower	right	upper	1	807	ses-01	913
sub-011	1	151	uncrossed	same	same	100	right	lower	right	lower	1	1424	ses-01	914
sub-011	1	152	uncrossed	same	different	800	right	lower	right	upper	1	619	ses-01	915
sub-011	1	153	uncrossed	same	different	50	left	lower	left	upper	1	993	ses-01	916
sub-011	1	154	uncrossed	same	same	50	left	lower	left	lower	1	984	ses-01	917
sub-011	1	155	uncrossed	different	same	100	right	lower	left	lower	1	636	ses-01	918
sub-011	1	156	uncrossed	different	same	100	left	lower	right	lower	1	817	ses-01	919
sub-011	1	157	uncrossed	different	different	100	left	upper	right	lower	1	628	ses-01	920
sub-011	1	158	uncrossed	same	same	800	right	lower	right	lower	1	257	ses-01	921
sub-011	1	159	uncrossed	same	different	300	right	upper	right	lower	1	798	ses-01	922
sub-011	1	160	uncrossed	same	different	100	right	upper	right	lower	1	1103	ses-01	923
sub-011	1	161	uncrossed	different	same	50	right	lower	left	lower	1	809	ses-01	924
sub-011	1	162	uncrossed	same	same	100	right	lower	right	lower	1	1330	ses-01	925
sub-011	1	163	uncrossed	different	different	50	left	lower	right	upper	1	775	ses-01	926
sub-011	1	164	uncrossed	same	different	50	left	lower	left	upper	1	1074	ses-01	927
sub-011	1	165	uncrossed	different	same	800	right	lower	left	lower	1	1001	ses-01	928
sub-011	1	166	uncrossed	same	different	300	right	lower	right	upper	1	1003	ses-01	929
sub-011	1	167	uncrossed	different	same	300	right	lower	left	lower	1	658	ses-01	930
sub-011	1	168	uncrossed	same	different	100	left	lower	left	upper	1	1585	ses-01	931
sub-011	1	169	uncrossed	same	different	300	left	lower	left	upper	1	1014	ses-01	932
sub-011	1	170	uncrossed	same	different	300	right	lower	right	upper	1	970	ses-01	933
sub-011	1	171	uncrossed	same	different	300	left	lower	left	upper	1	969	ses-01	934
sub-011	1	172	uncrossed	different	different	100	left	lower	right	upper	1	814	ses-01	935
sub-011	1	173	uncrossed	different	same	100	right	lower	left	lower	1	794	ses-01	936
sub-011	1	174	uncrossed	same	same	300	left	lower	left	lower	1	1335	ses-01	937
sub-011	1	175	uncrossed	same	same	100	right	lower	right	lower	1	1090	ses-01	938
sub-011	1	176	uncrossed	same	same	50	left	lower	left	lower	1	1022	ses-01	939
sub-011	1	177	uncrossed	same	same	100	left	lower	left	lower	1	1187	ses-01	940
sub-011	1	178	uncrossed	different	same	100	left	lower	right	lower	1	833	ses-01	941
sub-011	1	179	uncrossed	different	same	100	right	lower	left	lower	1	682	ses-01	942
sub-011	1	180	uncrossed	same	same	50	right	lower	right	lower	1	1139	ses-01	943
sub-011	1	181	uncrossed	different	different	50	left	lower	right	upper	1	760	ses-01	944
sub-011	1	182	uncrossed	same	same	800	left	lower	left	lower	1	840	ses-01	945
sub-011	1	183	uncrossed	same	different	100	left	lower	left	upper	1	1323	ses-01	946
sub-011	1	184	uncrossed	different	same	300	right	lower	left	lower	1	549	ses-01	947
sub-011	1	185	uncrossed	different	different	300	right	upper	left	lower	1	808	ses-01	948
sub-011	1	186	uncrossed	different	different	800	left	upper	right	lower	1	796	ses-01	949
sub-011	1	187	uncrossed	different	different	800	left	upper	right	lower	1	747	ses-01	950
sub-011	1	188	uncrossed	different	same	300	left	lower	right	lower	1	602	ses-01	951
sub-011	1	189	uncrossed	same	same	50	right	lower	right	lower	1	1276	ses-01	952
sub-011	1	190	uncrossed	same	same	800	left	lower	left	lower	1	1058	ses-01	953
sub-011	1	191	uncrossed	different	different	300	left	lower	right	upper	1	1095	ses-01	954
sub-011	1	192	uncrossed	same	same	300	right	lower	right	lower	1	1114	ses-01	955
sub-011	1	193	uncrossed	same	different	300	right	lower	right	upper	1	680	ses-01	956
sub-011	1	194	uncrossed	different	different	800	right	upper	left	lower	0	224	ses-01	957
sub-011	1	195	uncrossed	same	same	800	right	lower	right	lower	1	1156	ses-01	958
sub-011	1	196	uncrossed	different	same	50	left	lower	right	lower	1	607	ses-01	959
sub-011	1	197	uncrossed	different	different	100	right	lower	left	upper	1	645	ses-01	960
sub-011	1	198	uncrossed	same	same	300	right	lower	right	lower	1	976	ses-01	961
sub-011	1	199	uncrossed	different	same	800	left	lower	right	lower	1	642	ses-01	962
sub-011	1	200	uncrossed	same	different	50	right	lower	right	upper	1	1441	ses-01	963
sub-011	1	201	uncrossed	different	different	100	left	upper	right	lower	1	936	ses-01	964
sub-011	1	202	uncrossed	same	different	800	right	upper	right	lower	1	1104	ses-01	965
sub-011	1	203	uncrossed	same	different	300	right	upper	right	lower	1	1071	ses-01	966
sub-011	1	204	uncrossed	same	same	300	right	lower	right	lower	1	1053	ses-01	967
sub-011	1	205	uncrossed	different	different	50	right	upper	left	lower	1	648	ses-01	968
sub-011	1	206	uncrossed	different	same	300	left	lower	right	lower	1	773	ses-01	969
sub-011	1	207	uncrossed	same	same	800	left	lower	left	lower	1	806	ses-01	970
sub-011	1	208	uncrossed	different	same	300	left	lower	right	lower	1	648	ses-01	971
sub-011	1	209	uncrossed	different	different	800	right	upper	left	lower	1	719	ses-01	972
sub-011	1	210	uncrossed	same	same	50	left	lower	left	lower	1	1481	ses-01	973
sub-011	1	211	uncrossed	same	same	800	right	lower	right	lower	1	837	ses-01	974
sub-011	1	212	uncrossed	same	different	300	right	lower	right	upper	1	855	ses-01	975
sub-011	1	213	uncrossed	same	different	50	right	upper	right	lower	1	1519	ses-01	976
sub-011	1	214	uncrossed	same	different	50	right	lower	right	upper	1	1499	ses-01	977
sub-011	1	215	uncrossed	same	same	300	left	lower	left	lower	1	1166	ses-01	978
sub-011	1	216	uncrossed	different	same	50	left	lower	right	lower	1	1066	ses-01	979
sub-011	1	217	uncrossed	different	same	800	right	lower	left	lower	1	766	ses-01	980
sub-011	1	218	uncrossed	different	different	300	left	upper	right	lower	1	692	ses-01	981
sub-011	1	219	uncrossed	different	same	100	right	lower	left	lower	1	610	ses-01	982
sub-011	1	220	uncrossed	different	same	100	left	lower	right	lower	1	764	ses-01	983
sub-011	1	221	uncrossed	same	different	800	right	lower	right	upper	1	1264	ses-01	984
sub-011	1	222	uncrossed	same	different	50	left	upper	left	lower	1	1099	ses-01	985
sub-011	1	223	uncrossed	different	same	100	right	lower	left	lower	1	1058	ses-01	986
sub-011	1	224	uncrossed	same	different	300	right	upper	right	lower	1	1083	ses-01	987
sub-011	1	225	uncrossed	same	same	100	left	lower	left	lower	1	1091	ses-01	988
sub-011	1	226	uncrossed	same	same	300	right	lower	right	lower	1	1027	ses-01	989
sub-011	1	227	uncrossed	different	different	800	right	lower	left	upper	1	769	ses-01	990
sub-011	1	228	uncrossed	different	different	300	left	upper	right	lower	1	709	ses-01	991
sub-011	1	229	uncrossed	different	same	300	right	lower	left	lower	1	580	ses-01	992
sub-011	1	230	uncrossed	same	same	300	right	lower	right	lower	1	1184	ses-01	993
sub-011	1	231	uncrossed	same	different	800	right	lower	right	upper	1	934	ses-01	994
sub-011	1	232	uncrossed	same	different	50	right	lower	right	upper	1	1181	ses-01	995
sub-011	1	233	uncrossed	different	different	800	right	lower	left	upper	1	778	ses-01	996
sub-011	1	234	uncrossed	different	same	50	right	lower	left	lower	1	1099	ses-01	997
sub-011	1	235	uncrossed	same	same	50	left	lower	left	lower	1	1434	ses-01	998
sub-011	1	236	uncrossed	different	same	800	right	lower	left	lower	1	736	ses-01	999
sub-011	1	237	uncrossed	different	different	800	right	upper	left	lower	1	617	ses-01	1000
sub-011	1	238	uncrossed	different	different	300	left	upper	right	lower	1	565	ses-01	1001
sub-011	1	239	uncrossed	different	different	50	left	lower	right	upper	1	663	ses-01	1002
sub-011	1	240	uncrossed	same	same	800	right	lower	right	lower	1	1297	ses-01	1003
sub-011	1	241	uncrossed	different	same	800	right	lower	left	lower	1	674	ses-01	1004
sub-011	1	242	uncrossed	same	different	50	left	upper	left	lower	1	1216	ses-01	1005
sub-011	1	243	uncrossed	same	same	100	right	lower	right	lower	1	1143	ses-01	1006
sub-011	1	244	uncrossed	different	different	300	right	upper	left	lower	1	667	ses-01	1007
sub-011	1	245	uncrossed	different	different	800	left	lower	right	upper	1	630	ses-01	1008
sub-011	1	246	uncrossed	different	different	300	left	lower	right	upper	1	609	ses-01	1009
sub-011	1	247	uncrossed	same	same	100	left	lower	left	lower	1	923	ses-01	1010
sub-011	1	248	uncrossed	same	same	800	left	lower	left	lower	1	1307	ses-01	1011
sub-011	1	249	uncrossed	same	same	100	right	lower	right	lower	1	901	ses-01	1012
sub-011	1	250	uncrossed	same	different	100	left	lower	left	upper	1	1191	ses-01	1013
sub-011	1	251	uncrossed	same	different	100	right	lower	right	upper	1	913	ses-01	1014
sub-011	1	252	uncrossed	same	same	300	right	lower	right	lower	1	1154	ses-01	1015
sub-011	1	253	uncrossed	different	same	100	left	lower	right	lower	1	584	ses-01	1016
sub-011	1	254	uncrossed	different	same	300	left	lower	right	lower	1	516	ses-01	1017
sub-011	1	255	uncrossed	same	same	800	left	lower	left	lower	1	968	ses-01	1018
sub-011	1	256	uncrossed	same	same	800	left	lower	left	lower	1	928	ses-01	1019
sub-011	1	257	uncrossed	different	same	100	left	lower	right	lower	1	813	ses-01	1020
sub-011	1	258	uncrossed	same	different	50	left	upper	left	lower	1	1113	ses-01	1021
sub-011	1	259	uncrossed	different	same	50	right	lower	left	lower	1	1089	ses-01	1022
sub-011	1	260	uncrossed	different	same	800	left	lower	right	lower	1	690	ses-01	1023
sub-011	1	261	uncrossed	different	different	300	left	upper	right	lower	1	506	ses-01	1024
sub-011	1	262	uncrossed	different	different	50	right	upper	left	lower	1	660	ses-01	1025
sub-011	1	263	uncrossed	different	same	100	left	lower	right	lower	1	452	ses-01	1026
sub-011	1	264	uncrossed	same	different	300	right	upper	right	lower	1	838	ses-01	1027
sub-011	1	265	uncrossed	same	same	50	left	lower	left	lower	1	1564	ses-01	1028
sub-011	1	266	uncrossed	same	different	100	left	upper	left	lower	1	993	ses-01	1029
sub-011	1	267	uncrossed	different	same	50	left	lower	right	lower	1	680	ses-01	1030
sub-011	1	268	uncrossed	same	different	100	right	upper	right	lower	1	779	ses-01	1031
sub-011	1	269	uncrossed	same	same	50	right	lower	right	lower	1	1043	ses-01	1032
sub-011	1	270	uncrossed	different	same	50	left	lower	right	lower	1	896	ses-01	1033
sub-011	1	271	uncrossed	different	different	300	left	lower	right	upper	1	731	ses-01	1034
sub-011	1	272	uncrossed	different	different	300	left	upper	right	lower	1	532	ses-01	1035
sub-011	1	273	uncrossed	different	same	50	right	lower	left	lower	1	739	ses-01	1036
sub-011	1	274	uncrossed	same	same	100	left	lower	left	lower	1	1004	ses-01	1037
sub-011	1	275	uncrossed	same	different	800	left	lower	left	upper	1	577	ses-01	1038
sub-011	1	276	uncrossed	same	different	800	left	lower	left	upper	1	853	ses-01	1039
sub-011	1	277	uncrossed	different	same	300	left	lower	right	lower	1	739	ses-01	1040
sub-011	1	278	uncrossed	different	same	100	left	lower	right	lower	1	666	ses-01	1041
sub-011	1	279	uncrossed	different	different	100	left	upper	right	lower	1	695	ses-01	1042
sub-011	1	280	uncrossed	same	different	800	left	upper	left	lower	1	978	ses-01	1043
sub-011	1	281	uncrossed	same	different	50	left	lower	left	upper	1	1537	ses-01	1044
sub-011	1	282	uncrossed	different	different	100	right	lower	left	upper	1	715	ses-01	1045
sub-011	1	283	uncrossed	same	different	800	left	upper	left	lower	1	778	ses-01	1046
sub-011	1	284	uncrossed	different	different	100	left	lower	right	upper	1	669	ses-01	1047
sub-011	1	285	uncrossed	same	different	800	right	upper	right	lower	1	923	ses-01	1048
sub-011	1	286	uncrossed	different	different	100	right	upper	left	lower	1	733	ses-01	1049
sub-011	1	287	uncrossed	different	different	50	right	upper	left	lower	1	745	ses-01	1050
sub-011	1	288	uncrossed	different	different	100	left	upper	right	lower	1	753	ses-01	1051
sub-011	1	289	uncrossed	different	different	800	left	upper	right	lower	1	764	ses-01	1052
sub-011	1	290	uncrossed	different	different	800	left	lower	right	upper	1	640	ses-01	1053
sub-011	1	291	uncrossed	different	different	50	left	upper	right	lower	1	961	ses-01	1054
sub-011	1	292	uncrossed	different	same	50	right	lower	left	lower	1	636	ses-01	1055
sub-011	1	293	uncrossed	different	different	50	right	lower	left	upper	1	577	ses-01	1056
sub-011	1	294	uncrossed	different	different	100	right	upper	left	lower	1	688	ses-01	1057
sub-011	1	295	uncrossed	different	different	50	right	upper	left	lower	1	574	ses-01	1058
sub-011	1	296	uncrossed	same	different	800	left	upper	left	lower	1	810	ses-01	1059
sub-011	1	297	uncrossed	same	same	50	left	lower	left	lower	1	1500	ses-01	1060
sub-011	1	298	uncrossed	different	different	300	right	lower	left	upper	1	879	ses-01	1061
sub-011	1	299	uncrossed	same	same	300	left	lower	left	lower	1	884	ses-01	1062
sub-011	1	300	uncrossed	same	different	300	left	upper	left	lower	1	965	ses-01	1063
sub-011	1	301	uncrossed	different	same	300	left	lower	right	lower	1	682	ses-01	1064
sub-011	1	302	uncrossed	different	different	100	left	lower	right	upper	1	673	ses-01	1065
sub-011	1	303	uncrossed	different	same	100	left	lower	right	lower	1	555	ses-01	1066
sub-011	1	304	uncrossed	same	same	300	left	lower	left	lower	1	785	ses-01	1067
sub-011	1	305	uncrossed	different	different	50	right	lower	left	upper	1	557	ses-01	1068
sub-011	1	306	uncrossed	same	different	800	left	lower	left	upper	1	621	ses-01	1069
sub-011	1	307	uncrossed	same	same	800	left	lower	left	lower	1	765	ses-01	1070
sub-011	1	308	uncrossed	different	different	100	left	lower	right	upper	1	755	ses-01	1071
sub-011	1	309	uncrossed	different	different	100	left	upper	right	lower	1	640	ses-01	1072
sub-011	1	310	uncrossed	same	different	300	left	upper	left	lower	1	631	ses-01	1073
sub-011	1	311	uncrossed	different	same	50	left	lower	right	lower	1	724	ses-01	1074
sub-011	1	312	uncrossed	same	same	300	left	lower	left	lower	1	692	ses-01	1075
sub-011	1	313	uncrossed	different	same	100	left	lower	right	lower	1	659	ses-01	1076
sub-011	1	314	uncrossed	same	different	800	right	upper	right	lower	1	462	ses-01	1077
sub-011	1	315	uncrossed	different	same	800	right	lower	left	lower	1	653	ses-01	1078
sub-011	1	316	uncrossed	different	same	300	right	lower	left	lower	1	640	ses-01	1079
sub-011	1	317	uncrossed	same	different	50	left	upper	left	lower	1	1156	ses-01	1080
sub-011	1	318	uncrossed	same	different	800	left	lower	left	upper	1	635	ses-01	1081
sub-011	1	319	uncrossed	different	different	800	right	lower	left	upper	0	626	ses-01	1082
sub-011	1	320	uncrossed	same	different	300	left	lower	left	upper	1	703	ses-01	1083
sub-011	1	321	uncrossed	different	different	300	left	upper	right	lower	1	438	ses-01	1084
sub-011	1	322	uncrossed	different	same	300	left	lower	right	lower	1	577	ses-01	1085
sub-011	1	323	uncrossed	different	same	800	right	lower	left	lower	1	851	ses-01	1086
sub-011	1	324	uncrossed	same	same	100	right	lower	right	lower	1	965	ses-01	1087
sub-011	1	325	uncrossed	same	same	800	right	lower	right	lower	1	818	ses-01	1088
sub-011	1	326	uncrossed	same	same	800	right	lower	right	lower	1	708	ses-01	1089
sub-011	1	327	uncrossed	same	same	300	right	lower	right	lower	1	944	ses-01	1090
sub-011	1	328	uncrossed	same	different	100	right	lower	right	upper	1	931	ses-01	1091
sub-011	1	329	uncrossed	same	different	300	right	upper	right	lower	1	717	ses-01	1092
sub-011	1	330	uncrossed	same	different	50	left	upper	left	lower	1	951	ses-01	1093
sub-011	1	331	uncrossed	different	same	800	right	lower	left	lower	1	833	ses-01	1094
sub-011	1	332	uncrossed	same	different	100	left	upper	left	lower	1	863	ses-01	1095
sub-011	1	333	uncrossed	different	same	300	left	lower	right	lower	1	618	ses-01	1096
sub-011	1	334	uncrossed	same	different	100	left	upper	left	lower	1	786	ses-01	1097
sub-011	1	335	uncrossed	different	different	100	right	upper	left	lower	1	1483	ses-01	1098
sub-011	1	336	uncrossed	different	different	800	right	lower	left	upper	1	489	ses-01	1099
sub-011	1	337	uncrossed	different	same	300	right	lower	left	lower	1	589	ses-01	1100
sub-011	1	338	uncrossed	different	same	800	left	lower	right	lower	1	608	ses-01	1101
sub-011	1	339	uncrossed	different	different	50	left	lower	right	upper	1	584	ses-01	1102
sub-011	1	340	uncrossed	different	same	800	left	lower	right	lower	1	482	ses-01	1103
sub-011	1	341	uncrossed	different	same	300	left	lower	right	lower	1	432	ses-01	1104
sub-011	1	342	uncrossed	different	different	800	right	upper	left	lower	1	557	ses-01	1105
sub-011	1	343	uncrossed	same	same	100	right	lower	right	lower	1	973	ses-01	1106
sub-011	1	344	uncrossed	same	same	50	left	lower	left	lower	1	1020	ses-01	1107
sub-011	1	345	uncrossed	different	same	50	left	lower	right	lower	1	852	ses-01	1108
sub-011	1	346	uncrossed	different	different	100	right	upper	left	lower	1	668	ses-01	1109
sub-011	1	347	uncrossed	different	different	800	left	lower	right	upper	1	690	ses-01	1110
sub-011	1	348	uncrossed	same	different	100	right	lower	right	upper	1	851	ses-01	1111
sub-011	1	349	uncrossed	same	same	300	left	lower	left	lower	1	913	ses-01	1112
sub-011	1	350	uncrossed	different	different	800	left	upper	right	lower	1	524	ses-01	1113
sub-011	1	351	uncrossed	different	same	300	right	lower	left	lower	1	583	ses-01	1114
sub-011	1	352	uncrossed	same	different	100	right	upper	right	lower	1	748	ses-01	1115
sub-011	1	353	uncrossed	different	same	300	right	lower	left	lower	1	670	ses-01	1116
sub-011	1	354	uncrossed	same	same	50	left	lower	left	lower	1	812	ses-01	1117
sub-011	1	355	uncrossed	same	different	800	right	lower	right	upper	1	1690	ses-01	1118
sub-011	1	356	uncrossed	same	same	100	right	lower	right	lower	1	734	ses-01	1119
sub-011	1	357	uncrossed	different	different	300	right	upper	left	lower	1	608	ses-01	1120
sub-011	1	358	uncrossed	same	different	50	left	lower	left	upper	1	753	ses-01	1121
sub-011	1	359	uncrossed	same	different	300	right	lower	right	upper	1	780	ses-01	1122
sub-011	1	360	uncrossed	different	different	300	right	upper	left	lower	1	656	ses-01	1123
sub-011	1	361	uncrossed	same	different	300	left	upper	left	lower	1	827	ses-01	1124
sub-011	1	362	uncrossed	different	different	50	right	upper	left	lower	1	2011	ses-01	1125
sub-011	1	363	uncrossed	same	different	300	left	upper	left	lower	1	672	ses-01	1126
sub-011	1	364	uncrossed	same	different	100	left	upper	left	lower	1	712	ses-01	1127
sub-011	1	365	uncrossed	different	different	100	right	upper	left	lower	1	728	ses-01	1128
sub-011	1	366	uncrossed	different	different	300	right	lower	left	upper	1	575	ses-01	1129
sub-011	1	367	uncrossed	different	same	50	right	lower	left	lower	1	585	ses-01	1130
sub-011	1	368	uncrossed	same	different	100	left	upper	left	lower	1	907	ses-01	1131
sub-011	1	369	uncrossed	same	same	300	right	lower	right	lower	1	917	ses-01	1132
sub-011	1	370	uncrossed	different	different	50	left	upper	right	lower	1	562	ses-01	1133
sub-011	1	371	uncrossed	different	same	100	left	lower	right	lower	1	1162	ses-01	1134
sub-011	1	372	uncrossed	same	same	100	left	lower	left	lower	1	763	ses-01	1135
sub-011	1	373	uncrossed	different	different	50	right	lower	left	upper	1	602	ses-01	1136
sub-011	1	374	uncrossed	different	same	50	right	lower	left	lower	1	705	ses-01	1137
sub-011	1	375	uncrossed	same	same	300	left	lower	left	lower	1	594	ses-01	1138
sub-011	1	376	uncrossed	different	same	50	left	lower	right	lower	1	839	ses-01	1139
sub-011	1	377	uncrossed	different	same	800	left	lower	right	lower	1	560	ses-01	1140
sub-011	1	378	uncrossed	same	different	50	right	lower	right	upper	1	768	ses-01	1141
sub-011	1	379	uncrossed	different	same	800	right	lower	left	lower	1	764	ses-01	1142
sub-011	1	380	uncrossed	same	different	100	right	upper	right	lower	1	866	ses-01	1143
sub-011	1	381	uncrossed	different	different	300	left	lower	right	upper	1	945	ses-01	1144
sub-011	1	382	uncrossed	same	different	800	right	lower	right	upper	1	997	ses-01	1145
sub-011	1	383	uncrossed	different	different	300	left	lower	right	upper	1	687	ses-01	1146
sub-011	1	384	uncrossed	different	different	50	right	lower	left	upper	1	783	ses-01	1147
sub-011	1	385	uncrossed	same	same	800	left	lower	left	lower	1	853	ses-01	1148
sub-011	1	386	uncrossed	different	same	800	left	lower	right	lower	1	606	ses-01	1149
sub-011	1	387	uncrossed	same	different	800	right	upper	right	lower	1	732	ses-01	1150
sub-011	1	388	uncrossed	different	same	800	right	lower	left	lower	1	510	ses-01	1151
sub-011	1	389	uncrossed	different	different	800	left	lower	right	upper	1	684	ses-01	1152
sub-011	2	1	uncrossed	different	different	50	right	upper	left	lower	0	2119	ses-01	1153
sub-011	2	2	uncrossed	different	same	800	left	lower	right	lower	1	994	ses-01	1154
sub-011	2	3	uncrossed	same	different	50	left	lower	left	upper	1	1056	ses-01	1155
sub-011	2	4	uncrossed	different	different	50	right	upper	left	lower	1	967	ses-01	1156
sub-011	2	5	uncrossed	different	different	100	left	lower	right	upper	1	2054	ses-01	1157
sub-011	2	6	uncrossed	same	same	50	left	lower	left	lower	1	826	ses-01	1158
sub-011	2	7	uncrossed	same	same	50	right	lower	right	lower	1	782	ses-01	1159
sub-011	2	8	uncrossed	same	same	300	left	lower	left	lower	1	941	ses-01	1160
sub-011	2	9	uncrossed	same	different	100	left	upper	left	lower	1	984	ses-01	1161
sub-011	2	10	uncrossed	different	same	50	left	lower	right	lower	1	939	ses-01	1162
sub-011	2	11	uncrossed	different	different	800	left	lower	right	upper	1	875	ses-01	1163
sub-011	2	12	uncrossed	different	different	100	left	upper	right	lower	1	894	ses-01	1164
sub-011	2	13	uncrossed	different	different	800	left	upper	right	lower	1	578	ses-01	1165
sub-011	2	14	uncrossed	same	different	50	right	upper	right	lower	1	1744	ses-01	1166
sub-011	2	15	uncrossed	same	same	50	left	lower	left	lower	1	861	ses-01	1167
sub-011	2	16	uncrossed	same	same	50	right	lower	right	lower	1	985	ses-01	1168
sub-011	2	17	uncrossed	same	same	100	right	lower	right	lower	1	1016	ses-01	1169
sub-011	2	18	uncrossed	different	same	300	right	lower	left	lower	1	932	ses-01	1170
sub-011	2	19	uncrossed	different	different	800	left	upper	right	lower	1	846	ses-01	1171
sub-011	2	20	uncrossed	different	same	100	left	lower	right	lower	1	675	ses-01	1172
sub-011	2	21	uncrossed	same	same	50	left	lower	left	lower	1	818	ses-01	1173
sub-011	2	22	uncrossed	different	same	300	left	lower	right	lower	1	748	ses-01	1174
sub-011	2	23	uncrossed	different	same	800	right	lower	left	lower	1	766	ses-01	1175
sub-011	2	24	uncrossed	different	same	50	right	lower	left	lower	1	1001	ses-01	1176
sub-011	2	25	uncrossed	different	same	100	left	lower	right	lower	1	691	ses-01	1177
sub-011	2	26	uncrossed	different	same	100	left	lower	right	lower	1	768	ses-01	1178
sub-011	2	27	uncrossed	same	different	50	left	upper	left	lower	1	842	ses-01	1179
sub-011	2	28	uncrossed	different	different	300	left	upper	right	lower	1	735	ses-01	1180
sub-011	2	29	uncrossed	different	same	100	right	lower	left	lower	1	568	ses-01	1181
sub-011	2	30	uncrossed	different	same	300	right	lower	left	lower	1	1058	ses-01	1182
sub-011	2	31	uncrossed	different	different	100	left	lower	right	upper	1	1237	ses-01	1183
sub-011	2	32	uncrossed	same	same	300	right	lower	right	lower	1	1039	ses-01	1184
sub-011	2	33	uncrossed	same	different	100	left	lower	left	upper	1	839	ses-01	1185
sub-011	2	35	uncrossed	same	different	50	right	lower	right	upper	1	730	ses-01	1186
sub-011	2	37	uncrossed	different	different	100	right	lower	left	upper	1	956	ses-01	1187
sub-011	2	38	uncrossed	same	different	800	right	upper	right	lower	1	626	ses-01	1188
sub-011	2	39	uncrossed	same	same	300	right	lower	right	lower	1	1235	ses-01	1189
sub-011	2	40	uncrossed	same	same	800	left	lower	left	lower	1	914	ses-01	1190
sub-011	2	41	uncrossed	same	different	50	right	upper	right	lower	1	909	ses-01	1191
sub-011	2	42	uncrossed	same	different	100	right	upper	right	lower	1	754	ses-01	1192
sub-011	2	43	uncrossed	different	same	100	right	lower	left	lower	1	1143	ses-01	1193
sub-011	2	44	uncrossed	different	different	50	left	upper	right	lower	1	998	ses-01	1194
sub-011	2	45	uncrossed	same	different	300	left	upper	left	lower	1	858	ses-01	1195
sub-011	2	46	uncrossed	same	different	100	right	lower	right	upper	1	833	ses-01	1196
sub-011	2	47	uncrossed	same	different	50	right	lower	right	upper	1	954	ses-01	1197
sub-011	2	48	uncrossed	same	same	100	right	lower	right	lower	1	1114	ses-01	1198
sub-011	2	49	uncrossed	same	different	50	left	lower	left	upper	1	1474	ses-01	1199
sub-011	2	50	uncrossed	different	different	300	left	upper	right	lower	1	742	ses-01	1200
sub-011	2	51	uncrossed	different	same	300	right	lower	left	lower	1	801	ses-01	1201
sub-011	2	52	uncrossed	different	different	50	left	upper	right	lower	1	922	ses-01	1202
sub-011	2	53	uncrossed	different	different	100	left	upper	right	lower	1	852	ses-01	1203
sub-011	2	54	uncrossed	same	different	800	left	lower	left	upper	1	720	ses-01	1204
sub-011	2	55	uncrossed	different	same	800	left	lower	right	lower	1	556	ses-01	1205
sub-011	2	56	uncrossed	same	same	800	left	lower	left	lower	1	767	ses-01	1206
sub-011	2	57	uncrossed	same	different	300	right	lower	right	upper	1	776	ses-01	1207
sub-011	2	58	uncrossed	different	different	800	left	lower	right	upper	1	1852	ses-01	1208
sub-011	2	59	uncrossed	same	different	800	left	upper	left	lower	1	814	ses-01	1209
sub-011	2	60	uncrossed	different	different	800	left	lower	right	upper	1	1369	ses-01	1210
sub-011	2	61	uncrossed	same	different	50	left	lower	left	upper	1	925	ses-01	1211
sub-011	2	62	uncrossed	same	different	800	right	upper	right	lower	1	835	ses-01	1212
sub-011	2	63	uncrossed	different	same	50	right	lower	left	lower	1	849	ses-01	1213
sub-011	2	64	uncrossed	same	same	100	left	lower	left	lower	1	660	ses-01	1214
sub-011	2	65	uncrossed	same	different	800	right	lower	right	upper	1	653	ses-01	1215
sub-011	2	66	uncrossed	different	different	300	right	upper	left	lower	1	840	ses-01	1216
sub-011	2	67	uncrossed	same	different	50	left	upper	left	lower	1	897	ses-01	1217
sub-011	2	68	uncrossed	same	same	100	right	lower	right	lower	1	808	ses-01	1218
sub-011	2	69	uncrossed	same	different	50	right	upper	right	lower	1	765	ses-01	1219
sub-011	2	70	uncrossed	same	same	800	right	lower	right	lower	1	689	ses-01	1220
sub-011	2	71	uncrossed	same	different	300	right	upper	right	lower	1	896	ses-01	1221
sub-011	2	72	uncrossed	different	same	50	right	lower	left	lower	1	885	ses-01	1222
