participant_id	run	trial_in_run	posture	stim_side	stim_segment	soa	tactor1side	tactor1segment	tactor2side	tactor2segment	response_correct	rt	session	trial
sub-17	1	1	crossed	different	same	800	right	lower	left	lower	1	1102	ses-1	1
sub-17	1	2	crossed	same	different	300	right	lower	right	upper	1	1497	ses-1	2
sub-17	1	3	crossed	same	different	50	left	lower	left	upper	0	1804	ses-1	3
sub-17	1	4	crossed	same	same	100	left	lower	left	lower	1	1490	ses-1	4
sub-17	1	5	crossed	same	different	100	left	upper	left	lower	1	827	ses-1	5
sub-17	1	6	crossed	different	different	800	right	upper	left	lower	1	1067	ses-1	6
sub-17	1	7	crossed	same	different	800	left	lower	left	upper	1	1837	ses-1	7
sub-17	1	8	crossed	different	different	800	left	upper	right	lower	1	857	ses-1	8
sub-17	1	9	crossed	different	same	800	right	lower	left	lower	1	1083	ses-1	9
sub-17	1	10	crossed	same	different	50	right	upper	right	lower	1	904	ses-1	10
sub-17	1	11	crossed	different	different	100	left	lower	right	upper	1	1096	ses-1	11
sub-17	1	12	crossed	same	same	100	right	lower	right	lower	1	622	ses-1	12
sub-17	1	13	crossed	same	different	100	right	lower	right	upper	1	389	ses-1	13
sub-17	1	14	crossed	same	different	300	left	upper	left	lower	1	472	ses-1	14
sub-17	1	15	crossed	different	same	50	right	lower	left	lower	1	809	ses-1	15
sub-17	1	16	crossed	different	different	800	right	lower	left	upper	1	710	ses-1	16
sub-17	1	17	crossed	different	different	50	left	lower	right	upper	0	970	ses-1	17
sub-17	1	18	crossed	same	different	50	left	upper	left	lower	1	808	ses-1	18
sub-17	1	19	crossed	different	different	300	right	lower	left	upper	1	715	ses-1	19
sub-17	1	20	crossed	same	same	50	left	lower	left	lower	1	737	ses-1	20
sub-17	1	21	crossed	different	different	800	right	upper	left	lower	1	1204	ses-1	21
sub-17	1	22	crossed	different	different	800	right	upper	left	lower	1	428	ses-1	22
sub-17	1	23	crossed	same	different	800	left	upper	left	lower	1	731	ses-1	23
sub-17	1	24	crossed	different	different	300	right	upper	left	lower	1	1084	ses-1	24
sub-17	1	25	crossed	same	different	50	right	lower	right	upper	1	1129	ses-1	25
sub-17	1	26	crossed	same	different	50	right	lower	right	upper	1	553	ses-1	26
sub-17	1	27	crossed	different	different	100	left	lower	right	upper	1	685	ses-1	27
sub-17	1	28	crossed	same	different	300	left	lower	left	upper	1	829	ses-1	28
sub-17	1	29	crossed	same	different	800	right	upper	right	lower	1	857	ses-1	29
sub-17	1	30	crossed	same	same	300	left	lower	left	lower	1	659	ses-1	30
sub-17	1	31	crossed	same	different	300	right	upper	right	lower	1	574	ses-1	31
sub-17	1	32	crossed	same	different	800	left	upper	left	lower	1	539	ses-1	32
sub-17	1	33	crossed	same	same	300	left	lower	left	lower	1	507	ses-1	33
sub-17	1	34	crossed	same	same	100	left	lower	left	lower	1	661	ses-1	34
sub-17	1	35	crossed	different	same	800	right	lower	left	lower	1	797	ses-1	35
sub-17	1	36	crossed	different	same	100	left	lower	right	lower	1	707	ses-1	36
sub-17	1	37	crossed	different	same	100	right	lower	left	lower	1	702	ses-1	37
sub-17	1	38	crossed	different	same	800	right	lower	left	lower	1	552	ses-1	38
sub-17	1	39	crossed	different	different	100	left	upper	right	lower	1	795	ses-1	39
sub-17	1	40	crossed	same	same	50	left	lower	left	lower	0	1734	ses-1	40
sub-17	1	41	crossed	different	different	300	right	lower	left	upper	1	987	ses-1	41
sub-17	1	42	crossed	same	same	300	left	lower	left	lower	1	599	ses-1	42
sub-17	1	43	crossed	different	same	50	left	lower	right	lower	1	695	ses-1	43
sub-17	1	45	crossed	same	same	50	right	lower	right	lower	1	661	ses-1	44
sub-17	1	46	crossed	different	different	50	left	upper	right	lower	1	516	ses-1	45
sub-17	1	47	crossed	different	different	300	right	lower	left	upper	1	1252	ses-1	46
sub-17	1	48	crossed	same	different	50	right	upper	right	lower	1	457	ses-1	47
sub-17	1	49	crossed	same	different	300	left	upper	left	lower	1	748	ses-1	48
sub-17	1	50	crossed	different	same	300	left	lower	right	lower	1	574	ses-1	49
sub-17	1	51	crossed	same	different	800	left	lower	left	upper	1	749	ses-1	50
sub-17	1	52	crossed	different	different	100	left	lower	right	upper	1	1265	ses-1	51
sub-17	1	53	crossed	same	same	100	right	lower	right	lower	1	931	ses-1	52
sub-17	1	54	crossed	same	same	100	left	lower	left	lower	1	994	ses-1	53
sub-17	1	55	crossed	different	same	50	left	lower	right	lower	1	1608	ses-1	54
sub-17	1	56	crossed	same	same	100	left	lower	left	lower	1	787	ses-1	55
sub-17	1	57	crossed	same	different	50	right	upper	right	lower	1	857	ses-1	56
sub-17	1	58	crossed	different	different	50	right	upper	left	lower	1	648	ses-1	57
sub-17	1	59	crossed	same	different	100	right	lower	right	upper	1	585	ses-1	58
sub-17	1	60	crossed	different	same	50	right	lower	left	lower	1	678	ses-1	59
sub-17	1	61	crossed	different	different	50	left	upper	right	lower	1	2091	ses-1	60
sub-17	1	62	crossed	different	different	100	left	upper	right	lower	1	603	ses-1	61
sub-17	1	63	crossed	same	different	300	right	upper	right	lower	1	824	ses-1	62
sub-17	1	64	crossed	different	same	300	left	lower	right	lower	1	738	ses-1	63
sub-17	1	65	crossed	same	different	800	left	lower	left	upper	1	1386	ses-1	64
sub-17	1	66	crossed	same	same	800	right	lower	right	lower	1	724	ses-1	65
sub-17	1	67	crossed	different	same	100	right	lower	left	lower	1	675	ses-1	66
sub-17	1	68	crossed	same	different	50	right	upper	right	lower	1	623	ses-1	67
sub-17	1	69	crossed	same	same	300	left	lower	left	lower	1	659	ses-1	68
sub-17	1	70	crossed	different	different	800	left	lower	right	upper	1	696	ses-1	69
sub-17	1	71	crossed	different	same	50	right	lower	left	lower	0	805	ses-1	70
sub-17	1	72	crossed	same	same	300	right	lower	right	lower	1	658	ses-1	71
sub-17	1	73	crossed	same	different	100	left	lower	left	upper	1	1032	ses-1	72
sub-17	1	74	crossed	same	different	100	right	upper	right	lower	1	563	ses-1	73
sub-17	1	75	crossed	different	different	50	right	lower	left	upper	1	1305	ses-1	74
sub-17	1	76	crossed	different	different	800	left	lower	right	upper	1	677	ses-1	75
sub-17	1	77	crossed	different	different	100	right	upper	left	lower	1	751	ses-1	76
sub-17	1	78	crossed	same	same	800	left	lower	left	lower	1	686	ses-1	77
sub-17	1	79	crossed	same	same	100	right	lower	right	lower	1	673	ses-1	78
sub-17	1	80	crossed	same	different	100	left	lower	left	upper	1	712	ses-1	79
sub-17	1	81	crossed	same	different	50	left	lower	left	upper	1	493	ses-1	80
sub-17	1	82	crossed	different	same	300	left	lower	right	lower	1	621	ses-1	81
sub-17	1	83	crossed	different	same	100	right	lower	left	lower	1	1584	ses-1	82
sub-17	1	84	crossed	different	same	300	left	lower	right	lower	1	768	ses-1	83
sub-17	1	85	crossed	different	same	300	right	lower	left	lower	1	810	ses-1	84
sub-17	1	86	crossed	different	different	300	left	lower	right	upper	1	625	ses-1	85
sub-17	1	87	crossed	different	different	100	right	lower	left	upper	0	2631	ses-1	86
sub-17	1	88	crossed	same	same	800	left	lower	left	lower	1	656	ses-1	87
sub-17	1	89	crossed	same	different	800	right	lower	right	upper	0	1016	ses-1	88
sub-17	1	90	crossed	different	same	300	right	lower	left	lower	1	914	ses-1	89
sub-17	1	91	crossed	same	same	100	right	lower	right	lower	1	861	ses-1	90
sub-17	1	92	crossed	same	same	800	right	lower	right	lower	1	529	ses-1	91
sub-17	1	93	crossed	same	different	50	right	lower	right	upper	1	523	ses-1	92
sub-17	1	94	crossed	same	same	300	left	lower	left	lower	1	817	ses-1	93
sub-17	1	95	crossed	different	different	100	left	upper	right	lower	1	869	ses-1	94
sub-17	1	96	crossed	same	same	100	right	lower	right	lower	1	756	ses-1	95
sub-17	1	97	crossed	same	same	300	right	lower	right	lower	1	558	ses-1	96
sub-17	1	98	crossed	same	same	50	right	lower	right	lower	1	553	ses-1	97
sub-17	1	99	crossed	different	different	800	left	upper	right	lower	1	773	ses-1	98
sub-17	1	100	crossed	different	same	300	right	lower	left	lower	1	1190	ses-1	99
sub-17	1	101	crossed	same	same	50	right	lower	right	lower	1	632	ses-1	100
sub-17	1	102	crossed	different	different	50	left	lower	right	upper	1	1475	ses-1	101
sub-17	1	103	crossed	same	same	100	left	lower	left	lower	1	1185	ses-1	102
sub-17	1	104	crossed	same	different	100	left	upper	left	lower	1	509	ses-1	103
sub-17	1	105	crossed	different	same	50	left	lower	right	lower	1	755	ses-1	104
sub-17	1	106	crossed	same	different	300	right	lower	right	upper	1	742	ses-1	105
sub-17	1	107	crossed	same	different	800	right	lower	right	upper	1	1107	ses-1	106
sub-17	1	108	crossed	same	different	100	left	lower	left	upper	1	628	ses-1	107
sub-17	1	109	crossed	same	same	300	left	lower	left	lower	1	533	ses-1	108
sub-17	1	110	crossed	same	same	300	right	lower	right	lower	1	546	ses-1	109
sub-17	1	111	crossed	different	same	50	left	lower	right	lower	0	2186	ses-1	110
sub-17	1	112	crossed	different	different	50	left	lower	right	upper	1	1090	ses-1	111
sub-17	1	113	crossed	same	same	50	left	lower	left	lower	1	1009	ses-1	112
sub-17	1	114	crossed	different	different	800	right	lower	left	upper	1	665	ses-1	113
sub-17	1	115	crossed	different	same	50	left	lower	right	lower	1	1231	ses-1	114
sub-17	1	116	crossed	different	different	300	right	upper	left	lower	1	852	ses-1	115
sub-17	1	117	crossed	same	different	50	right	lower	right	upper	1	847	ses-1	116
sub-17	1	118	crossed	same	same	50	left	lower	left	lower	0	2147	ses-1	117
sub-17	1	119	crossed	different	different	100	right	lower	left	upper	1	1083	ses-1	118
sub-17	1	120	crossed	different	different	50	right	lower	left	upper	1	676	ses-1	119
sub-17	1	121	crossed	same	same	800	left	lower	left	lower	1	1118	ses-1	120
sub-17	1	122	crossed	same	different	800	right	upper	right	lower	1	615	ses-1	121
sub-17	1	123	crossed	same	same	800	right	lower	right	lower	1	458	ses-1	122
sub-17	1	124	crossed	same	same	800	right	lower	right	lower	1	428	ses-1	123
sub-17	1	125	crossed	same	different	300	left	lower	left	upper	1	697	ses-1	124
sub-17	1	126	crossed	same	same	300	right	lower	right	lower	1	555	ses-1	125
sub-17	1	127	crossed	different	different	300	right	upper	left	lower	1	951	ses-1	126
sub-17	1	128	crossed	different	same	100	left	lower	right	lower	1	747	ses-1	127
sub-17	1	129	crossed	different	different	300	left	lower	right	upper	1	557	ses-1	128
sub-17	1	130	crossed	same	same	100	left	lower	left	lower	1	833	ses-1	129
sub-17	1	131	crossed	different	different	800	left	lower	right	upper	1	546	ses-1	130
sub-17	1	132	crossed	different	different	100	right	lower	left	upper	0	2137	ses-1	131
sub-17	1	133	crossed	different	different	800	left	upper	right	lower	1	1168	ses-1	132
sub-17	1	134	crossed	same	different	300	right	upper	right	lower	1	1062	ses-1	133
sub-17	1	135	crossed	different	same	300	left	lower	right	lower	1	1271	ses-1	134
sub-17	1	136	crossed	different	different	100	left	lower	right	upper	0	1034	ses-1	135
sub-17	1	137	crossed	same	different	300	right	lower	right	upper	1	534	ses-1	136
sub-17	1	138	crossed	different	same	50	right	lower	left	lower	1	799	ses-1	137
sub-17	1	139	crossed	different	different	50	right	lower	left	upper	0	1149	ses-1	138
sub-17	1	140	crossed	different	same	800	left	lower	right	lower	1	1391	ses-1	139
sub-17	1	141	crossed	same	different	800	right	lower	right	upper	1	934	ses-1	140
sub-17	1	142	crossed	different	different	300	left	upper	right	lower	1	1547	ses-1	141
sub-17	1	143	crossed	different	different	50	left	upper	right	lower	1	982	ses-1	142
sub-17	1	144	crossed	same	different	800	left	lower	left	upper	1	1139	ses-1	143
sub-17	1	146	crossed	different	same	50	right	lower	left	lower	1	1244	ses-1	144
sub-17	1	147	crossed	different	same	800	right	lower	left	lower	1	960	ses-1	145
sub-17	1	148	crossed	different	same	50	right	lower	left	lower	1	1970	ses-1	146
sub-17	1	149	crossed	different	same	800	right	lower	left	lower	1	589	ses-1	147
sub-17	1	150	crossed	same	same	50	left	lower	left	lower	0	912	ses-1	148
sub-17	1	151	crossed	different	same	50	left	lower	right	lower	0	1593	ses-1	149
sub-17	1	152	crossed	different	different	100	left	lower	right	upper	1	954	ses-1	150
sub-17	1	153	crossed	different	same	300	right	lower	left	lower	0	2110	ses-1	151
sub-17	1	154	crossed	different	same	300	right	lower	left	lower	0	796	ses-1	152
sub-17	1	155	crossed	same	different	100	left	upper	left	lower	1	824	ses-1	153
sub-17	1	156	crossed	same	different	800	right	lower	right	upper	0	943	ses-1	154
sub-17	1	157	crossed	different	different	800	left	lower	right	upper	1	661	ses-1	155
sub-17	1	158	crossed	same	different	800	left	upper	left	lower	1	765	ses-1	156
sub-17	1	159	crossed	different	different	800	right	lower	left	upper	1	1283	ses-1	157
sub-17	1	160	crossed	same	different	50	left	upper	left	lower	1	921	ses-1	158
sub-17	1	161	crossed	same	same	300	right	lower	right	lower	1	1306	ses-1	159
sub-17	1	162	crossed	same	different	100	right	upper	right	lower	1	978	ses-1	160
sub-17	1	163	crossed	same	same	100	right	lower	right	lower	1	620	ses-1	161
sub-17	1	165	crossed	different	same	100	right	lower	left	lower	0	1107	ses-1	162
sub-17	1	166	crossed	same	different	800	right	lower	right	upper	1	863	ses-1	163
sub-17	1	167	crossed	same	different	100	left	upper	left	lower	1	1622	ses-1	164
sub-17	1	168	crossed	same	same	800	right	lower	right	lower	1	870	ses-1	165
sub-17	1	169	crossed	different	different	300	right	upper	left	lower	1	835	ses-1	166
sub-17	1	170	crossed	different	different	800	right	upper	left	lower	1	490	ses-1	167
sub-17	1	171	crossed	same	same	800	left	lower	left	lower	1	837	ses-1	168
sub-17	1	172	crossed	different	same	300	right	lower	left	lower	1	2021	ses-1	169
sub-17	1	173	crossed	different	different	50	left	lower	right	upper	1	1107	ses-1	170
sub-17	1	174	crossed	different	different	50	right	upper	left	lower	1	726	ses-1	171
sub-17	1	175	crossed	different	different	800	right	upper	left	lower	1	690	ses-1	172
sub-17	1	176	crossed	different	same	800	left	lower	right	lower	1	649	ses-1	173
sub-17	1	177	crossed	same	same	50	left	lower	left	lower	1	863	ses-1	174
sub-17	1	178	crossed	different	same	100	left	lower	right	lower	1	1390	ses-1	175
sub-17	1	179	crossed	same	same	50	left	lower	left	lower	1	1361	ses-1	176
sub-17	1	180	crossed	different	same	100	right	lower	left	lower	1	1126	ses-1	177
sub-17	1	181	crossed	same	same	800	right	lower	right	lower	1	846	ses-1	178
sub-17	1	182	crossed	same	same	50	right	lower	right	lower	1	605	ses-1	179
sub-17	1	183	crossed	same	different	100	right	lower	right	upper	1	1199	ses-1	180
sub-17	1	184	crossed	same	different	300	left	lower	left	upper	1	796	ses-1	181
sub-17	1	185	crossed	same	different	300	right	upper	right	lower	1	633	ses-1	182
sub-17	1	186	crossed	same	different	800	right	upper	right	lower	1	919	ses-1	183
sub-17	1	187	crossed	different	different	300	right	upper	left	lower	1	736	ses-1	184
sub-17	1	188	crossed	different	different	50	right	upper	left	lower	1	589	ses-1	185
sub-17	1	189	crossed	different	same	300	left	lower	right	lower	1	666	ses-1	186
sub-17	1	190	crossed	different	same	300	left	lower	right	lower	1	658	ses-1	187
sub-17	1	191	crossed	same	different	100	right	upper	right	lower	1	1177	ses-1	188
sub-17	1	192	crossed	different	different	300	right	lower	left	upper	1	1464	ses-1	189
sub-17	1	193	crossed	same	different	300	left	upper	left	lower	1	806	ses-1	190
sub-17	1	194	crossed	same	different	300	left	upper	left	lower	1	510	ses-1	191
sub-17	1	195	crossed	same	same	50	right	lower	right	lower	1	810	ses-1	192
sub-17	1	196	crossed	same	different	100	left	upper	left	lower	1	852	ses-1	193
sub-17	1	197	crossed	different	same	800	right	lower	left	lower	1	513	ses-1	194
sub-17	1	198	crossed	different	same	50	left	lower	right	lower	1	1367	ses-1	195
sub-17	1	199	crossed	different	different	300	right	lower	left	upper	1	540	ses-1	196
sub-17	1	200	crossed	same	same	100	right	lower	right	lower	1	972	ses-1	197
sub-17	1	201	crossed	same	different	100	left	lower	left	upper	0	1241	ses-1	198
sub-17	1	202	crossed	different	different	300	left	lower	right	upper	0	1102	ses-1	199
sub-17	1	203	crossed	different	different	100	right	upper	left	lower	1	1849	ses-1	200
sub-17	1	204	crossed	different	different	50	left	upper	right	lower	1	2671	ses-1	201
sub-17	1	205	crossed	same	different	50	left	upper	left	lower	1	1333	ses-1	202
sub-17	1	206	crossed	same	same	50	right	lower	right	lower	0	1591	ses-1	203
sub-17	1	207	crossed	different	same	100	right	lower	left	lower	1	850	ses-1	204
sub-17	1	208	crossed	different	same	50	left	lower	right	lower	1	1279	ses-1	205
sub-17	1	209	crossed	same	same	100	left	lower	left	lower	1	835	ses-1	206
sub-17	1	210	crossed	same	different	300	left	lower	left	upper	1	616	ses-1	207
sub-17	1	211	crossed	different	same	800	left	lower	right	lower	1	668	ses-1	208
sub-17	1	212	crossed	different	same	100	right	lower	left	lower	1	2250	ses-1	209
sub-17	1	213	crossed	same	same	50	left	lower	left	lower	0	1430	ses-1	210
sub-17	1	214	crossed	same	different	300	left	lower	left	upper	1	1721	ses-1	211
sub-17	1	215	crossed	same	different	50	right	lower	right	upper	1	1291	ses-1	212
sub-17	1	216	crossed	different	different	300	left	lower	right	upper	1	1060	ses-1	213
sub-17	1	217	crossed	same	same	800	left	lower	left	lower	1	1337	ses-1	214
sub-17	1	218	crossed	same	different	800	left	upper	left	lower	1	635	ses-1	215
sub-17	1	219	crossed	different	different	800	right	lower	left	upper	1	1069	ses-1	216
sub-17	1	220	crossed	different	same	300	left	lower	right	lower	1	1262	ses-1	217
sub-17	1	221	crossed	different	same	100	right	lower	left	lower	1	975	ses-1	218
sub-17	1	222	crossed	same	same	100	left	lower	left	lower	1	999	ses-1	219
sub-17	1	223	crossed	different	different	800	left	lower	right	upper	1	548	ses-1	220
sub-17	1	224	crossed	different	different	800	right	upper	left	lower	1	625	ses-1	221
sub-17	1	225	crossed	same	different	300	right	lower	right	upper	1	842	ses-1	222
sub-17	1	226	crossed	same	same	300	left	lower	left	lower	1	758	ses-1	223
sub-17	1	227	crossed	same	same	800	left	lower	left	lower	1	539	ses-1	224
sub-17	1	228	crossed	same	same	50	left	lower	left	lower	1	661	ses-1	225
sub-17	1	229	crossed	different	same	100	left	lower	right	lower	1	740	ses-1	226
sub-17	1	230	crossed	same	same	100	right	lower	right	lower	1	815	ses-1	227
sub-17	1	231	crossed	different	same	100	right	lower	left	lower	1	683	ses-1	228
sub-17	1	232	crossed	same	same	300	right	lower	right	lower	1	765	ses-1	229
sub-17	1	233	crossed	same	same	300	left	lower	left	lower	1	617	ses-1	230
sub-17	1	234	crossed	same	different	300	right	upper	right	lower	1	537	ses-1	231
sub-17	1	235	crossed	same	different	100	right	upper	right	lower	1	580	ses-1	232
sub-17	1	236	crossed	different	same	100	right	lower	left	lower	1	694	ses-1	233
sub-17	1	237	crossed	same	different	100	right	upper	right	lower	1	672	ses-1	234
sub-17	1	238	crossed	same	different	800	left	upper	left	lower	1	629	ses-1	235
sub-17	1	239	crossed	same	same	100	left	lower	left	lower	1	498	ses-1	236
sub-17	1	240	crossed	different	different	800	right	lower	left	upper	1	1087	ses-1	237
sub-17	1	241	crossed	same	same	300	left	lower	left	lower	1	756	ses-1	238
sub-17	1	242	crossed	different	different	300	left	upper	right	lower	1	959	ses-1	239
sub-17	1	243	crossed	same	different	300	left	upper	left	lower	1	714	ses-1	240
sub-17	1	244	crossed	same	different	800	right	lower	right	upper	1	874	ses-1	241
sub-17	1	245	crossed	different	different	800	left	upper	right	lower	1	823	ses-1	242
sub-17	1	246	crossed	same	same	100	right	lower	right	lower	1	640	ses-1	243
sub-17	1	247	crossed	different	different	50	right	upper	left	lower	1	1048	ses-1	244
sub-17	1	248	crossed	same	same	50	right	lower	right	lower	1	876	ses-1	245
sub-17	1	249	crossed	same	same	50	right	lower	right	lower	1	559	ses-1	246
sub-17	1	250	crossed	different	same	800	left	lower	right	lower	1	701	ses-1	247
sub-17	1	251	crossed	same	same	300	left	lower	left	lower	1	709	ses-1	248
sub-17	1	252	crossed	different	different	100	left	upper	right	lower	1	790	ses-1	249
sub-17	1	253	crossed	same	different	800	left	lower	left	upper	1	723	ses-1	250
sub-17	1	254	crossed	same	different	50	left	lower	left	upper	1	678	ses-1	251
sub-17	1	255	crossed	same	same	50	right	lower	right	lower	1	660	ses-1	252
sub-17	1	256	crossed	different	same	800	left	lower	right	lower	1	739	ses-1	253
sub-17	1	257	crossed	different	same	300	right	lower	left	lower	1	948	ses-1	254
sub-17	1	258	crossed	same	different	800	right	upper	right	lower	1	638	ses-1	255
sub-17	1	259	crossed	different	same	300	right	lower	left	lower	1	617	ses-1	256
sub-17	1	260	crossed	same	same	800	right	lower	right	lower	1	47	ses-1	257
sub-17	1	261	crossed	different	different	100	left	upper	right	lower	1	573	ses-1	258
sub-17	1	262	crossed	different	same	300	right	lower	left	lower	1	570	ses-1	259
sub-17	1	263	crossed	same	different	50	left	upper	left	lower	1	756	ses-1	260
sub-17	1	264	crossed	different	same	800	left	lower	right	lower	1	721	ses-1	261
sub-17	1	265	crossed	same	same	100	left	lower	left	lower	1	1322	ses-1	262
sub-17	1	266	crossed	same	same	800	left	lower	left	lower	1	677	ses-1	263
sub-17	1	267	crossed	different	different	50	left	lower	right	upper	1	1566	ses-1	264
sub-17	1	268	crossed	different	same	50	right	lower	left	lower	1	1421	ses-1	265
sub-17	1	269	crossed	different	same	50	left	lower	right	lower	1	1043	ses-1	266
sub-17	1	270	crossed	different	different	300	left	upper	right	lower	1	696	ses-1	267
sub-17	1	271	crossed	same	different	100	right	lower	right	upper	1	796	ses-1	268
sub-17	1	272	crossed	different	same	800	left	lower	right	lower	1	697	ses-1	269
sub-17	1	273	crossed	different	same	800	left	lower	right	lower	1	619	ses-1	270
sub-17	1	274	crossed	different	different	300	left	upper	right	lower	0	1552	ses-1	271
sub-17	1	275	crossed	same	different	50	right	upper	right	lower	1	832	ses-1	272
sub-17	1	276	crossed	same	same	800	right	lower	right	lower	1	536	ses-1	273
sub-17	1	277	crossed	different	same	50	right	lower	left	lower	1	758	ses-1	274
sub-17	1	278	crossed	different	different	300	left	lower	right	upper	1	1272	ses-1	275
sub-17	1	279	crossed	different	same	100	left	lower	right	lower	1	765	ses-1	276
sub-17	1	280	crossed	different	different	800	left	upper	right	lower	1	1042	ses-1	277
sub-17	1	282	crossed	same	same	800	left	lower	left	lower	1	627	ses-1	278
sub-17	1	283	crossed	same	same	800	left	lower	left	lower	1	507	ses-1	279
sub-17	1	284	crossed	different	different	300	right	upper	left	lower	1	593	ses-1	280
sub-17	1	285	crossed	same	different	50	left	upper	left	lower	1	999	ses-1	281
sub-17	1	286	crossed	same	different	50	left	upper	left	lower	1	580	ses-1	282
sub-17	1	287	crossed	same	different	100	right	lower	right	upper	1	553	ses-1	283
sub-17	1	288	crossed	same	different	800	right	upper	right	lower	1	525	ses-1	284
sub-17	1	289	crossed	same	same	100	right	lower	right	lower	1	582	ses-1	285
sub-17	1	290	crossed	same	same	300	left	lower	left	lower	1	726	ses-1	286
sub-17	1	291	crossed	different	different	100	right	upper	left	lower	1	748	ses-1	287
sub-17	1	292	crossed	same	same	300	right	lower	right	lower	1	736	ses-1	288
sub-17	1	293	crossed	different	same	100	right	lower	left	lower	1	697	ses-1	289
sub-17	1	294	crossed	same	different	800	right	upper	right	lower	1	699	ses-1	290
sub-17	1	295	crossed	same	different	50	left	lower	left	upper	1	911	ses-1	291
sub-17	1	296	crossed	different	same	100	left	lower	right	lower	1	1620	ses-1	292
sub-17	1	297	crossed	same	same	50	left	lower	left	lower	1	752	ses-1	293
sub-17	1	298	crossed	different	same	300	left	lower	right	lower	1	663	ses-1	294
sub-17	1	299	crossed	different	different	50	right	upper	left	lower	1	1138	ses-1	295
sub-17	1	300	crossed	different	different	800	left	lower	right	upper	1	812	ses-1	296
sub-17	1	301	crossed	same	different	100	left	upper	left	lower	1	739	ses-1	297
sub-17	1	302	crossed	same	same	800	left	lower	left	lower	1	548	ses-1	298
sub-17	1	303	crossed	different	different	100	right	upper	left	lower	1	786	ses-1	299
sub-17	1	304	crossed	same	different	50	right	lower	right	upper	1	684	ses-1	300
sub-17	1	305	crossed	different	same	50	left	lower	right	lower	1	847	ses-1	301
sub-17	1	306	crossed	different	same	800	left	lower	right	lower	1	846	ses-1	302
sub-17	1	307	crossed	same	same	50	right	lower	right	lower	1	644	ses-1	303
sub-17	1	308	crossed	same	same	50	right	lower	right	lower	1	573	ses-1	304
sub-17	1	309	crossed	different	same	300	right	lower	left	lower	1	531	ses-1	305
sub-17	1	310	crossed	different	different	100	right	lower	left	upper	1	1700	ses-1	306
sub-17	1	311	crossed	same	same	800	left	lower	left	lower	1	628	ses-1	307
sub-17	1	312	crossed	different	same	50	right	lower	left	lower	1	1915	ses-1	308
sub-17	1	314	crossed	same	same	50	right	lower	right	lower	1	1006	ses-1	309
sub-17	1	315	crossed	same	different	50	right	upper	right	lower	1	565	ses-1	310
sub-17	1	316	crossed	different	same	300	left	lower	right	lower	1	1044	ses-1	311
sub-17	1	317	crossed	same	different	100	left	lower	left	upper	1	812	ses-1	312
sub-17	1	318	crossed	different	different	300	left	upper	right	lower	1	647	ses-1	313
sub-17	1	319	crossed	same	different	100	left	lower	left	upper	1	711	ses-1	314
sub-17	1	320	crossed	different	different	800	left	upper	right	lower	1	584	ses-1	315
sub-17	1	321	crossed	different	different	100	right	upper	left	lower	1	2179	ses-1	316
sub-17	1	322	crossed	different	different	100	right	lower	left	upper	0	2095	ses-1	317
sub-17	1	323	crossed	different	different	50	right	lower	left	upper	0	654	ses-1	318
sub-17	1	324	crossed	different	same	50	right	lower	left	lower	1	1283	ses-1	319
sub-17	1	325	crossed	different	different	100	right	lower	left	upper	1	1300	ses-1	320
sub-17	1	326	crossed	different	same	800	left	lower	right	lower	1	911	ses-1	321
sub-17	1	327	crossed	same	same	50	left	lower	left	lower	1	1083	ses-1	322
sub-17	1	328	crossed	same	different	50	left	lower	left	upper	1	649	ses-1	323
sub-17	1	329	crossed	same	same	800	right	lower	right	lower	1	837	ses-1	324
sub-17	1	330	crossed	different	different	50	right	lower	left	upper	0	2324	ses-1	325
sub-17	1	331	crossed	different	same	100	left	lower	right	lower	1	845	ses-1	326
sub-17	1	332	crossed	same	same	300	right	lower	right	lower	1	979	ses-1	327
sub-17	1	333	crossed	same	same	100	right	lower	right	lower	1	603	ses-1	328
sub-17	1	334	crossed	different	same	100	right	lower	left	lower	1	1672	ses-1	329
sub-17	1	335	crossed	different	different	50	left	upper	right	lower	1	1425	ses-1	330
sub-17	1	336	crossed	different	different	100	left	lower	right	upper	1	851	ses-1	331
sub-17	1	337	crossed	same	different	300	right	lower	right	upper	1	781	ses-1	332
sub-17	1	338	crossed	different	same	100	left	lower	right	lower	1	714	ses-1	333
sub-17	1	339	crossed	same	different	800	left	lower	left	upper	1	1078	ses-1	334
sub-17	1	340	crossed	different	same	800	right	lower	left	lower	1	712	ses-1	335
sub-17	1	341	crossed	same	same	800	left	lower	left	lower	1	660	ses-1	336
sub-17	1	342	crossed	different	same	100	left	lower	right	lower	1	1108	ses-1	337
sub-17	1	343	crossed	same	different	800	left	upper	left	lower	1	579	ses-1	338
sub-17	1	344	crossed	same	different	300	left	upper	left	lower	1	628	ses-1	339
sub-17	1	345	crossed	same	different	100	right	upper	right	lower	1	755	ses-1	340
sub-17	1	346	crossed	different	same	100	left	lower	right	lower	1	728	ses-1	341
sub-17	1	347	crossed	different	same	300	left	lower	right	lower	1	876	ses-1	342
sub-17	1	348	crossed	different	same	300	right	lower	left	lower	1	584	ses-1	343
sub-17	1	349	crossed	same	same	800	right	lower	right	lower	1	687	ses-1	344
sub-17	1	350	crossed	same	different	300	left	lower	left	upper	1	922	ses-1	345
sub-17	1	351	crossed	same	same	100	right	lower	right	lower	1	812	ses-1	346
sub-17	1	352	crossed	same	different	300	right	lower	right	upper	1	1156	ses-1	347
sub-17	1	353	crossed	different	same	300	left	lower	right	lower	1	1094	ses-1	348
sub-17	1	354	crossed	different	different	300	left	upper	right	lower	0	2211	ses-1	349
sub-17	1	355	crossed	different	same	50	right	lower	left	lower	1	917	ses-1	350
sub-17	1	356	crossed	different	same	800	right	lower	left	lower	1	872	ses-1	351
sub-17	1	357	crossed	same	different	300	right	upper	right	lower	1	1636	ses-1	352
sub-17	1	358	crossed	different	same	800	right	lower	left	lower	1	623	ses-1	353
sub-17	1	359	crossed	different	same	50	right	lower	left	lower	1	650	ses-1	354
sub-17	1	360	crossed	different	same	800	right	lower	left	lower	1	582	ses-1	355
sub-17	1	361	crossed	same	same	300	right	lower	right	lower	1	796	ses-1	356
sub-17	1	362	crossed	different	different	300	right	lower	left	upper	1	583	ses-1	357
sub-17	1	363	crossed	same	same	300	right	lower	right	lower	1	732	ses-1	358
sub-17	1	364	crossed	different	same	100	left	lower	right	lower	1	898	ses-1	359
sub-17	1	365	crossed	different	different	50	right	upper	left	lower	1	714	ses-1	360
sub-17	1	366	crossed	same	same	800	right	lower	right	lower	1	848	ses-1	361
sub-17	1	367	crossed	different	different	100	left	upper	right	lower	1	753	ses-1	362
sub-17	1	368	crossed	different	different	800	right	lower	left	upper	1	556	ses-1	363
sub-17	1	369	crossed	same	same	300	right	lower	right	lower	1	631	ses-1	364
sub-17	1	370	crossed	same	same	50	left	lower	left	lower	1	677	ses-1	365
sub-17	1	371	crossed	same	same	300	right	lower	right	lower	1	505	ses-1	366
sub-17	1	372	crossed	same	different	100	right	lower	right	upper	1	539	ses-1	367
sub-17	1	373	crossed	different	same	300	right	lower	left	lower	1	670	ses-1	368
sub-17	1	374	crossed	different	different	50	right	lower	left	upper	1	778	ses-1	369
sub-17	1	375	crossed	different	different	50	left	lower	right	upper	1	820	ses-1	370
sub-17	1	376	crossed	different	different	100	right	upper	left	lower	1	991	ses-1	371
sub-17	1	377	crossed	different	same	50	left	lower	right	lower	1	2111	ses-1	372
sub-17	1	378	crossed	different	different	50	left	upper	right	lower	1	2720	ses-1	373
sub-17	1	379	crossed	same	same	300	left	lower	left	lower	1	799	ses-1	374
sub-17	1	380	crossed	different	same	50	left	lower	right	lower	1	765	ses-1	375
sub-17	1	381	crossed	different	different	300	left	lower	right	upper	0	767	ses-1	376
sub-17	1	382	crossed	different	same	800	left	lower	right	lower	1	1233	ses-1	377
sub-17	1	383	crossed	different	same	100	left	lower	right	lower	1	923	ses-1	378
sub-17	1	384	crossed	same	different	50	left	lower	left	upper	1	1159	ses-1	379
sub-17	1	385	crossed	same	same	800	right	lower	right	lower	1	634	ses-1	380
sub-17	1	386	crossed	same	same	100	left	lower	left	lower	1	702	ses-1	381
sub-17	1	387	crossed	different	same	800	right	lower	left	lower	1	1049	ses-1	382
sub-17	1	388	crossed	same	same	100	left	lower	left	lower	1	501	ses-1	383
sub-17	1	389	crossed	different	same	800	left	lower	right	lower	1	659	ses-1	384
sub-17	2	1	crossed	different	different	100	left	upper	right	lower	1	2268	ses-1	385
sub-17	2	2	crossed	same	different	50	right	upper	right	lower	1	1197	ses-1	386
sub-17	2	3	crossed	same	same	800	right	lower	right	lower	1	920	ses-1	387
sub-17	2	4	crossed	same	different	800	right	lower	right	upper	1	451	ses-1	388
sub-17	2	5	crossed	different	same	300	right	lower	left	lower	1	519	ses-1	389
sub-17	2	6	crossed	same	different	800	right	lower	right	upper	1	753	ses-1	390
sub-17	2	7	crossed	different	different	300	left	lower	right	upper	1	627	ses-1	391
sub-17	2	8	crossed	different	different	50	left	upper	right	lower	1	1283	ses-1	392
sub-17	2	9	crossed	same	same	50	left	lower	left	lower	1	860	ses-1	393
sub-17	2	10	crossed	same	same	800	left	lower	left	lower	1	579	ses-1	394
sub-17	2	11	crossed	different	different	800	left	lower	right	upper	1	581	ses-1	395
sub-17	2	12	crossed	same	same	100	left	lower	left	lower	1	831	ses-1	396
sub-17	2	13	crossed	same	different	800	right	upper	right	lower	1	730	ses-1	397
sub-17	2	14	crossed	same	different	50	left	upper	left	lower	1	1187	ses-1	398
sub-17	2	15	crossed	different	different	100	left	upper	right	lower	1	972	ses-1	399
sub-17	2	16	crossed	same	different	300	right	upper	right	lower	1	904	ses-1	400
sub-17	2	17	crossed	different	same	300	right	lower	left	lower	1	593	ses-1	401
sub-17	2	18	crossed	different	different	100	left	upper	right	lower	1	1269	ses-1	402
sub-17	2	19	crossed	same	same	100	right	lower	right	lower	1	666	ses-1	403
sub-17	2	20	crossed	same	different	50	right	upper	right	lower	1	451	ses-1	404
sub-17	2	21	crossed	different	different	100	left	lower	right	upper	1	879	ses-1	405
sub-17	2	22	crossed	different	different	300	left	upper	right	lower	1	1468	ses-1	406
sub-17	2	23	crossed	same	same	800	left	lower	left	lower	1	629	ses-1	407
sub-17	2	24	crossed	different	different	50	right	lower	left	upper	1	897	ses-1	408
sub-17	2	25	crossed	different	same	300	left	lower	right	lower	1	1440	ses-1	409
sub-17	2	26	crossed	same	same	800	left	lower	left	lower	1	660	ses-1	410
sub-17	2	27	crossed	different	same	800	left	lower	right	lower	1	1025	ses-1	411
sub-17	2	28	crossed	same	different	50	left	lower	left	upper	1	1858	ses-1	412
sub-17	2	29	crossed	different	different	300	right	lower	left	upper	1	1226	ses-1	413
sub-17	2	30	crossed	same	different	100	right	upper	right	lower	1	743	ses-1	414
sub-17	2	31	crossed	same	different	300	left	upper	left	lower	1	985	ses-1	415
sub-17	2	32	crossed	same	different	800	right	upper	right	lower	1	913	ses-1	416
sub-17	2	33	crossed	different	same	300	left	lower	right	lower	1	886	ses-1	417
sub-17	2	34	crossed	same	same	50	left	lower	left	lower	1	1010	ses-1	418
sub-17	2	35	crossed	same	different	100	left	upper	left	lower	1	591	ses-1	419
sub-17	2	36	crossed	same	same	800	right	lower	right	lower	1	616	ses-1	420
sub-17	2	37	crossed	different	same	50	left	lower	right	lower	1	1050	ses-1	421
sub-17	2	38	crossed	same	different	800	left	lower	left	upper	1	943	ses-1	422
sub-17	2	39	crossed	different	different	50	left	lower	right	upper	1	1698	ses-1	423
sub-17	2	40	crossed	different	same	100	left	lower	right	lower	1	1139	ses-1	424
sub-17	2	41	crossed	same	same	300	left	lower	left	lower	1	1923	ses-1	425
sub-17	2	42	crossed	same	same	800	left	lower	left	lower	1	561	ses-1	426
sub-17	2	43	crossed	same	same	300	right	lower	right	lower	1	628	ses-1	427
sub-17	2	44	crossed	same	same	100	right	lower	right	lower	1	963	ses-1	428
sub-17	2	45	crossed	same	different	100	right	lower	right	upper	1	838	ses-1	429
sub-17	2	46	crossed	different	same	50	left	lower	right	lower	1	623	ses-1	430
sub-17	2	47	crossed	same	different	300	right	lower	right	upper	0	663	ses-1	431
sub-17	2	48	crossed	different	same	50	right	lower	left	lower	1	1263	ses-1	432
sub-17	2	49	crossed	same	different	800	left	upper	left	lower	1	928	ses-1	433
sub-17	2	50	crossed	same	different	300	right	upper	right	lower	1	961	ses-1	434
sub-17	2	51	crossed	different	different	800	right	upper	left	lower	0	1390	ses-1	435
sub-17	2	52	crossed	different	same	800	left	lower	right	lower	0	652	ses-1	436
sub-17	2	53	crossed	different	different	50	right	upper	left	lower	1	1565	ses-1	437
sub-17	2	54	crossed	different	different	100	right	upper	left	lower	1	533	ses-1	438
sub-17	2	55	crossed	same	same	100	left	lower	left	lower	1	958	ses-1	439
sub-17	2	56	crossed	different	same	100	right	lower	left	lower	1	696	ses-1	440
sub-17	2	57	crossed	different	same	100	right	lower	left	lower	1	582	ses-1	441
sub-17	2	58	crossed	same	different	300	right	upper	right	lower	1	948	ses-1	442
sub-17	2	59	crossed	different	same	300	right	lower	left	lower	1	560	ses-1	443
sub-17	2	60	crossed	same	different	100	right	lower	right	upper	1	712	ses-1	444
sub-17	2	61	crossed	same	different	50	left	lower	left	upper	1	819	ses-1	445
sub-17	2	62	crossed	different	different	50	right	upper	left	lower	1	651	ses-1	446
sub-17	2	63	crossed	same	same	50	left	lower	left	lower	1	679	ses-1	447
sub-17	2	64	crossed	same	same	300	right	lower	right	lower	1	808	ses-1	448
sub-17	2	65	crossed	different	same	100	left	lower	right	lower	1	863	ses-1	449
sub-17	2	66	crossed	same	different	50	left	upper	left	lower	1	822	ses-1	450
sub-17	2	67	crossed	different	same	100	left	lower	right	lower	1	629	ses-1	451
sub-17	2	68	crossed	different	same	50	right	lower	left	lower	1	705	ses-1	452
sub-17	2	69	crossed	different	same	300	right	lower	left	lower	1	696	ses-1	453
sub-17	2	70	crossed	different	same	50	left	lower	right	lower	0	897	ses-1	454
sub-17	2	71	crossed	same	different	300	right	lower	right	upper	1	655	ses-1	455
sub-17	2	72	crossed	different	different	100	left	upper	right	lower	1	930	ses-1	456
sub-17	2	73	crossed	same	different	800	right	upper	right	lower	1	960	ses-1	457
sub-17	2	74	crossed	different	different	50	left	upper	right	lower	0	730	ses-1	458
sub-17	2	75	crossed	different	same	50	left	lower	right	lower	1	760	ses-1	459
sub-17	2	76	crossed	different	different	100	right	upper	left	lower	1	1089	ses-1	460
sub-17	2	77	crossed	same	same	300	left	lower	left	lower	1	848	ses-1	461
sub-17	2	78	crossed	same	different	100	right	upper	right	lower	1	710	ses-1	462
sub-17	2	79	crossed	same	same	300	left	lower	left	lower	1	533	ses-1	463
sub-17	2	80	crossed	same	different	50	left	lower	left	upper	1	531	ses-1	464
sub-17	2	81	crossed	different	different	300	left	upper	right	lower	1	767	ses-1	465
sub-17	2	82	crossed	different	different	50	right	lower	left	upper	0	1031	ses-1	466
sub-17	2	83	crossed	different	same	50	right	lower	left	lower	0	861	ses-1	467
sub-17	2	84	crossed	different	same	50	left	lower	right	lower	0	1283	ses-1	468
sub-17	2	85	crossed	different	same	50	right	lower	left	lower	0	877	ses-1	469
sub-17	2	86	crossed	same	same	50	right	lower	right	lower	1	861	ses-1	470
sub-17	2	87	crossed	different	same	100	left	lower	right	lower	1	623	ses-1	471
sub-17	2	88	crossed	different	same	100	right	lower	left	lower	1	634	ses-1	472
sub-17	2	89	crossed	different	different	800	right	lower	left	upper	1	624	ses-1	473
sub-17	2	90	crossed	same	same	300	left	lower	left	lower	1	895	ses-1	474
sub-17	2	91	crossed	different	different	100	left	lower	right	upper	1	648	ses-1	475
sub-17	2	92	crossed	different	different	800	left	lower	right	upper	1	949	ses-1	476
sub-17	2	93	crossed	different	different	50	left	lower	right	upper	1	1005	ses-1	477
sub-17	2	94	crossed	different	different	300	left	upper	right	lower	0	1358	ses-1	478
sub-17	2	95	crossed	different	different	800	left	lower	right	upper	1	485	ses-1	479
sub-17	2	96	crossed	same	same	50	right	lower	right	lower	1	812	ses-1	480
sub-17	2	97	crossed	different	same	300	right	lower	left	lower	1	1331	ses-1	481
sub-17	2	98	crossed	same	different	50	left	upper	left	lower	1	771	ses-1	482
sub-17	2	99	crossed	same	same	800	left	lower	left	lower	1	583	ses-1	483
sub-17	2	100	crossed	different	same	800	right	lower	left	lower	1	1126	ses-1	484
sub-17	2	101	crossed	different	same	50	right	lower	left	lower	1	1532	ses-1	485
sub-17	2	102	crossed	same	different	800	left	lower	left	upper	1	598	ses-1	486
sub-17	2	103	crossed	same	different	100	left	lower	left	upper	1	530	ses-1	487
sub-17	2	104	crossed	same	same	50	left	lower	left	lower	1	464	ses-1	488
sub-17	2	105	crossed	different	same	100	right	lower	left	lower	1	825	ses-1	489
sub-17	2	106	crossed	different	different	800	left	upper	right	lower	1	509	ses-1	490
sub-17	2	107	crossed	different	different	300	left	lower	right	upper	1	523	ses-1	491
sub-17	2	108	crossed	same	same	100	left	lower	left	lower	1	898	ses-1	492
sub-17	2	109	crossed	different	different	50	right	lower	left	upper	1	1556	ses-1	493
sub-17	2	110	crossed	same	same	100	right	lower	right	lower	1	770	ses-1	494
sub-17	2	111	crossed	same	different	100	right	lower	right	upper	0	668	ses-1	495
sub-17	2	112	crossed	different	different	300	right	upper	left	lower	1	1775	ses-1	496
sub-17	2	113	crossed	different	different	100	right	upper	left	lower	1	2042	ses-1	497
sub-17	2	114	crossed	same	different	800	left	upper	left	lower	1	609	ses-1	498
sub-17	2	116	crossed	different	same	100	left	lower	right	lower	1	813	ses-1	499
sub-17	2	117	crossed	different	different	300	left	lower	right	upper	1	1539	ses-1	500
sub-17	2	118	crossed	different	different	50	left	upper	right	lower	1	2853	ses-1	501
sub-17	2	119	crossed	same	different	50	left	upper	left	lower	1	866	ses-1	502
sub-17	2	120	crossed	same	different	800	left	lower	left	upper	1	512	ses-1	503
sub-17	2	121	crossed	different	different	300	left	lower	right	upper	1	689	ses-1	504
sub-17	2	122	crossed	same	different	800	right	upper	right	lower	0	1422	ses-1	505
sub-17	2	123	crossed	different	same	800	right	lower	left	lower	1	1225	ses-1	506
sub-17	2	124	crossed	same	same	50	left	lower	left	lower	1	1068	ses-1	507
sub-17	2	125	crossed	different	different	100	right	upper	left	lower	1	1205	ses-1	508
sub-17	2	126	crossed	different	same	50	left	lower	right	lower	0	1205	ses-1	509
sub-17	2	127	crossed	same	same	800	left	lower	left	lower	1	658	ses-1	510
sub-17	2	128	crossed	same	same	50	left	lower	left	lower	1	629	ses-1	511
sub-17	2	129	crossed	different	same	50	right	lower	left	lower	1	796	ses-1	512
sub-17	2	130	crossed	different	same	800	left	lower	right	lower	1	917	ses-1	513
sub-17	2	131	crossed	same	same	50	left	lower	left	lower	1	864	ses-1	514
sub-17	2	132	crossed	different	different	800	right	lower	left	upper	1	713	ses-1	515
sub-17	2	133	crossed	same	different	50	left	lower	left	upper	1	1818	ses-1	516
sub-17	2	134	crossed	same	same	300	right	lower	right	lower	1	869	ses-1	517
sub-17	2	135	crossed	same	different	100	left	upper	left	lower	0	736	ses-1	518
sub-17	2	136	crossed	different	different	50	right	lower	left	upper	1	719	ses-1	519
sub-17	2	137	crossed	same	different	800	left	upper	left	lower	1	552	ses-1	520
sub-17	2	138	crossed	different	different	800	left	upper	right	lower	0	975	ses-1	521
sub-17	2	139	crossed	different	same	300	left	lower	right	lower	1	545	ses-1	522
sub-17	2	140	crossed	different	different	300	left	upper	right	lower	1	510	ses-1	523
sub-17	2	141	crossed	different	different	100	right	lower	left	upper	1	820	ses-1	524
sub-17	2	142	crossed	different	same	100	right	lower	left	lower	1	663	ses-1	525
sub-17	2	143	crossed	different	different	100	left	upper	right	lower	1	589	ses-1	526
sub-17	2	144	crossed	different	same	100	left	lower	right	lower	1	591	ses-1	527
sub-17	2	145	crossed	different	same	300	left	lower	right	lower	1	933	ses-1	528
sub-17	2	146	crossed	same	same	300	right	lower	right	lower	1	659	ses-1	529
sub-17	2	147	crossed	same	different	100	right	upper	right	lower	1	532	ses-1	530
sub-17	2	148	crossed	same	same	300	left	lower	left	lower	1	721	ses-1	531
sub-17	2	149	crossed	different	different	800	right	upper	left	lower	1	699	ses-1	532
sub-17	2	150	crossed	different	different	100	left	lower	right	upper	0	709	ses-1	533
sub-17	2	151	crossed	same	different	100	left	lower	left	upper	1	654	ses-1	534
sub-17	2	152	crossed	same	different	100	left	upper	left	lower	1	463	ses-1	535
sub-17	2	153	crossed	different	different	50	left	lower	right	upper	1	839	ses-1	536
sub-17	2	154	crossed	different	same	300	left	lower	right	lower	1	1476	ses-1	537
sub-17	2	155	crossed	different	different	50	left	lower	right	upper	0	1087	ses-1	538
sub-17	2	156	crossed	same	different	100	right	lower	right	upper	1	576	ses-1	539
sub-17	2	157	crossed	different	different	300	left	lower	right	upper	1	1450	ses-1	540
sub-17	2	158	crossed	same	different	800	right	lower	right	upper	0	1545	ses-1	541
sub-17	2	159	crossed	different	same	800	left	lower	right	lower	1	956	ses-1	542
sub-17	2	160	crossed	same	different	100	left	lower	left	upper	1	760	ses-1	543
sub-17	2	161	crossed	different	same	300	left	lower	right	lower	1	621	ses-1	544
sub-17	2	162	crossed	same	same	50	right	lower	right	lower	1	1121	ses-1	545
sub-17	2	163	crossed	different	different	300	right	lower	left	upper	1	599	ses-1	546
sub-17	2	164	crossed	same	same	50	right	lower	right	lower	1	711	ses-1	547
sub-17	2	165	crossed	same	different	50	right	lower	right	upper	1	493	ses-1	548
sub-17	2	166	crossed	different	same	100	right	lower	left	lower	1	902	ses-1	549
sub-17	2	167	crossed	different	same	300	left	lower	right	lower	1	655	ses-1	550
sub-17	2	168	crossed	different	different	100	right	lower	left	upper	1	638	ses-1	551
sub-17	2	169	crossed	different	different	800	right	upper	left	lower	1	1064	ses-1	552
sub-17	2	170	crossed	different	same	100	right	lower	left	lower	1	637	ses-1	553
sub-17	2	171	crossed	same	same	800	right	lower	right	lower	1	628	ses-1	554
sub-17	2	172	crossed	different	different	50	right	upper	left	lower	1	1227	ses-1	555
sub-17	2	173	crossed	same	same	300	left	lower	left	lower	1	775	ses-1	556
sub-17	2	174	crossed	different	different	800	right	upper	left	lower	1	813	ses-1	557
sub-17	2	175	crossed	different	same	800	right	lower	left	lower	1	502	ses-1	558
sub-17	2	176	crossed	different	same	100	left	lower	right	lower	1	598	ses-1	559
sub-17	2	177	crossed	same	different	50	left	lower	left	upper	1	745	ses-1	560
sub-17	2	178	crossed	same	different	50	right	lower	right	upper	1	790	ses-1	561
sub-17	2	179	crossed	same	different	800	left	upper	left	lower	1	573	ses-1	562
sub-17	2	180	crossed	same	different	100	left	upper	left	lower	1	511	ses-1	563
sub-17	2	181	crossed	same	same	50	left	lower	left	lower	1	530	ses-1	564
sub-17	2	182	crossed	different	different	100	right	upper	left	lower	1	668	ses-1	565
sub-17	2	183	crossed	different	different	300	right	lower	left	upper	1	630	ses-1	566
sub-17	2	184	crossed	different	same	800	right	lower	left	lower	1	878	ses-1	567
sub-17	2	185	crossed	different	different	800	right	lower	left	upper	1	574	ses-1	568
sub-17	2	186	crossed	different	same	300	right	lower	left	lower	1	1098	ses-1	569
sub-17	2	187	crossed	same	different	100	right	upper	right	lower	1	976	ses-1	570
sub-17	2	188	crossed	different	same	50	right	lower	left	lower	1	1026	ses-1	571
sub-17	2	189	crossed	same	different	100	right	lower	right	upper	1	646	ses-1	572
sub-17	2	190	crossed	same	same	100	left	lower	left	lower	1	816	ses-1	573
sub-17	2	191	crossed	different	same	50	right	lower	left	lower	1	1260	ses-1	574
sub-17	2	192	crossed	different	different	300	left	lower	right	upper	1	641	ses-1	575
sub-17	2	193	crossed	different	same	800	left	lower	right	lower	1	741	ses-1	576
sub-17	2	194	crossed	same	same	100	right	lower	right	lower	1	663	ses-1	577
sub-17	2	195	crossed	different	different	800	right	upper	left	lower	1	502	ses-1	578
sub-17	2	196	crossed	same	same	100	left	lower	left	lower	1	655	ses-1	579
sub-17	2	197	crossed	same	same	50	left	lower	left	lower	1	490	ses-1	580
sub-17	2	198	crossed	same	different	50	right	upper	right	lower	1	609	ses-1	581
sub-17	2	199	crossed	same	same	800	right	lower	right	lower	1	478	ses-1	582
sub-17	2	200	crossed	different	same	800	right	lower	left	lower	1	581	ses-1	583
sub-17	2	201	crossed	different	same	50	left	lower	right	lower	1	1132	ses-1	584
sub-17	2	202	crossed	different	different	800	right	lower	left	upper	1	612	ses-1	585
sub-17	2	203	crossed	same	same	50	right	lower	right	lower	1	672	ses-1	586
sub-17	2	204	crossed	same	different	800	right	lower	right	upper	1	523	ses-1	587
sub-17	2	205	crossed	different	different	300	left	upper	right	lower	1	569	ses-1	588
sub-17	2	206	crossed	different	same	800	right	lower	left	lower	1	540	ses-1	589
sub-17	2	207	crossed	same	different	800	right	upper	right	lower	1	745	ses-1	590
sub-17	2	208	crossed	different	different	300	right	lower	left	upper	1	578	ses-1	591
sub-17	2	209	crossed	same	different	100	left	lower	left	upper	1	1477	ses-1	592
sub-17	2	210	crossed	same	same	800	left	lower	left	lower	1	639	ses-1	593
sub-17	2	211	crossed	same	different	300	right	lower	right	upper	1	476	ses-1	594
sub-17	2	212	crossed	same	same	300	right	lower	right	lower	1	468	ses-1	595
sub-17	2	213	crossed	different	same	300	right	lower	left	lower	1	636	ses-1	596
sub-17	2	214	crossed	different	same	100	right	lower	left	lower	1	588	ses-1	597
sub-17	2	215	crossed	different	different	50	right	lower	left	upper	1	1707	ses-1	598
sub-17	2	216	crossed	different	different	100	right	lower	left	upper	1	1055	ses-1	599
sub-17	2	217	crossed	different	different	100	right	lower	left	upper	1	459	ses-1	600
sub-17	2	218	crossed	same	different	300	left	lower	left	upper	1	593	ses-1	601
sub-17	2	219	crossed	different	same	300	right	lower	left	lower	1	1176	ses-1	602
sub-17	2	220	crossed	different	different	50	right	lower	left	upper	1	1163	ses-1	603
sub-17	2	221	crossed	different	same	100	left	lower	right	lower	1	1475	ses-1	604
sub-17	2	222	crossed	same	different	300	right	upper	right	lower	1	575	ses-1	605
sub-17	2	223	crossed	same	different	100	left	lower	left	upper	1	657	ses-1	606
sub-17	2	224	crossed	different	different	100	left	lower	right	upper	0	957	ses-1	607
sub-17	2	225	crossed	same	different	300	left	lower	left	upper	1	693	ses-1	608
sub-17	2	226	crossed	same	same	100	right	lower	right	lower	1	575	ses-1	609
sub-17	2	227	crossed	different	different	100	right	lower	left	upper	1	628	ses-1	610
sub-17	2	228	crossed	same	same	100	left	lower	left	lower	1	585	ses-1	611
sub-17	2	229	crossed	same	same	800	left	lower	left	lower	1	584	ses-1	612
sub-17	2	230	crossed	same	same	300	left	lower	left	lower	1	440	ses-1	613
sub-17	2	231	crossed	different	different	800	left	upper	right	lower	1	620	ses-1	614
sub-17	2	232	crossed	same	different	300	left	lower	left	upper	1	589	ses-1	615
sub-17	2	233	crossed	same	different	800	left	upper	left	lower	1	525	ses-1	616
sub-17	2	234	crossed	same	same	800	right	lower	right	lower	1	489	ses-1	617
sub-17	2	235	crossed	different	same	50	right	lower	left	lower	1	838	ses-1	618
sub-17	2	236	crossed	different	different	100	left	lower	right	upper	0	706	ses-1	619
sub-17	2	237	crossed	different	same	800	right	lower	left	lower	1	559	ses-1	620
sub-17	2	238	crossed	same	different	300	left	lower	left	upper	1	943	ses-1	621
sub-17	2	239	crossed	different	same	50	left	lower	right	lower	1	1175	ses-1	622
sub-17	2	240	crossed	same	different	300	left	lower	left	upper	1	606	ses-1	623
sub-17	2	241	crossed	same	same	100	right	lower	right	lower	1	638	ses-1	624
sub-17	2	242	crossed	different	same	800	left	lower	right	lower	1	639	ses-1	625
sub-17	2	243	crossed	same	same	800	right	lower	right	lower	1	586	ses-1	626
sub-17	2	244	crossed	same	different	100	right	upper	right	lower	1	466	ses-1	627
sub-17	2	245	crossed	same	same	800	right	lower	right	lower	1	414	ses-1	628
sub-17	2	246	crossed	different	different	300	right	upper	left	lower	1	847	ses-1	629
sub-17	2	247	crossed	different	same	100	right	lower	left	lower	1	659	ses-1	630
sub-17	2	248	crossed	same	same	800	left	lower	left	lower	0	513	ses-1	631
sub-17	2	249	crossed	same	same	100	right	lower	right	lower	1	1780	ses-1	632
sub-17	2	250	crossed	same	different	300	right	upper	right	lower	1	513	ses-1	633
sub-17	2	251	crossed	same	same	800	right	lower	right	lower	1	517	ses-1	634
sub-17	2	252	crossed	same	different	800	left	lower	left	upper	1	544	ses-1	635
sub-17	2	253	crossed	same	same	300	right	lower	right	lower	1	495	ses-1	636
sub-17	2	254	crossed	different	different	100	left	lower	right	upper	1	966	ses-1	637
sub-17	2	255	crossed	same	same	100	left	lower	left	lower	1	754	ses-1	638
sub-17	2	256	crossed	different	same	300	right	lower	left	lower	1	1033	ses-1	639
sub-17	2	257	crossed	same	different	100	right	upper	right	lower	1	668	ses-1	640
sub-17	2	258	crossed	same	same	300	left	lower	left	lower	1	492	ses-1	641
sub-17	2	259	crossed	different	different	300	right	upper	left	lower	1	647	ses-1	642
sub-17	2	260	crossed	different	different	800	left	upper	right	lower	1	1043	ses-1	643
sub-17	2	261	crossed	same	different	300	left	upper	left	lower	1	928	ses-1	644
sub-17	2	262	crossed	different	different	100	right	lower	left	upper	1	941	ses-1	645
sub-17	2	263	crossed	different	same	300	right	lower	left	lower	1	658	ses-1	646
sub-17	2	264	crossed	different	same	300	left	lower	right	lower	1	551	ses-1	647
sub-17	2	265	crossed	different	same	50	left	lower	right	lower	1	541	ses-1	648
sub-17	2	266	crossed	same	same	50	right	lower	right	lower	1	673	ses-1	649
sub-17	2	267	crossed	same	same	300	right	lower	right	lower	1	448	ses-1	650
sub-17	2	268	crossed	same	same	100	right	lower	right	lower	1	463	ses-1	651
sub-17	2	269	crossed	different	same	100	right	lower	left	lower	1	597	ses-1	652
sub-17	2	270	crossed	different	same	800	left	lower	right	lower	1	651	ses-1	653
sub-17	2	271	crossed	same	different	50	left	lower	left	upper	1	663	ses-1	654
sub-17	2	273	crossed	same	same	300	right	lower	right	lower	1	576	ses-1	655
sub-17	2	274	crossed	different	same	300	left	lower	right	lower	1	673	ses-1	656
sub-17	2	275	crossed	same	different	50	left	upper	left	lower	1	684	ses-1	657
sub-17	2	276	crossed	same	different	50	right	lower	right	upper	1	687	ses-1	658
sub-17	2	277	crossed	same	same	100	right	lower	right	lower	1	367	ses-1	659
sub-17	2	278	crossed	same	same	300	left	lower	left	lower	1	469	ses-1	660
sub-17	2	279	crossed	different	different	50	right	upper	left	lower	1	562	ses-1	661
sub-17	2	280	crossed	different	different	800	left	lower	right	upper	1	450	ses-1	662
sub-17	2	281	crossed	same	same	800	right	lower	right	lower	1	835	ses-1	663
sub-17	2	283	crossed	same	different	100	left	upper	left	lower	1	1259	ses-1	664
sub-17	2	284	crossed	same	same	50	right	lower	right	lower	1	1627	ses-1	665
sub-17	2	285	crossed	same	different	300	right	lower	right	upper	1	767	ses-1	666
sub-17	2	286	crossed	different	same	100	right	lower	left	lower	1	1169	ses-1	667
sub-17	2	287	crossed	different	same	50	right	lower	left	lower	1	1114	ses-1	668
sub-17	2	288	crossed	different	same	800	right	lower	left	lower	1	574	ses-1	669
sub-17	2	289	crossed	same	same	800	left	lower	left	lower	1	609	ses-1	670
sub-17	2	290	crossed	same	different	800	right	lower	right	upper	1	609	ses-1	671
sub-17	2	291	crossed	same	same	50	left	lower	left	lower	1	991	ses-1	672
sub-17	2	292	crossed	different	different	300	left	upper	right	lower	1	761	ses-1	673
sub-17	2	293	crossed	different	same	300	right	lower	left	lower	1	676	ses-1	674
sub-17	2	294	crossed	different	different	800	left	upper	right	lower	1	520	ses-1	675
sub-17	2	295	crossed	different	same	50	right	lower	left	lower	0	1676	ses-1	676
sub-17	2	296	crossed	same	same	100	right	lower	right	lower	0	876	ses-1	677
sub-17	2	297	crossed	different	same	300	left	lower	right	lower	1	1234	ses-1	678
sub-17	2	298	crossed	different	same	800	left	lower	right	lower	1	577	ses-1	679
sub-17	2	299	crossed	different	different	50	left	upper	right	lower	1	666	ses-1	680
sub-17	2	300	crossed	same	different	50	right	upper	right	lower	1	691	ses-1	681
sub-17	2	301	crossed	same	different	50	right	upper	right	lower	1	582	ses-1	682
sub-17	2	302	crossed	same	same	50	right	lower	right	lower	1	492	ses-1	683
sub-17	2	303	crossed	different	different	800	right	upper	left	lower	1	707	ses-1	684
sub-17	2	304	crossed	different	same	800	left	lower	right	lower	1	596	ses-1	685
sub-17	2	305	crossed	different	same	300	left	lower	right	lower	1	591	ses-1	686
sub-17	2	306	crossed	different	different	50	left	upper	right	lower	1	1594	ses-1	687
sub-17	2	307	crossed	different	different	300	right	lower	left	upper	1	502	ses-1	688
sub-17	2	308	crossed	different	same	100	left	lower	right	lower	1	526	ses-1	689
sub-17	2	309	crossed	same	same	50	right	lower	right	lower	1	690	ses-1	690
sub-17	2	310	crossed	different	different	300	right	lower	left	upper	1	612	ses-1	691
sub-17	2	311	crossed	same	different	300	right	lower	right	upper	1	1238	ses-1	692
sub-17	2	312	crossed	same	different	100	right	lower	right	upper	1	426	ses-1	693
sub-17	2	313	crossed	different	same	800	left	lower	right	lower	1	508	ses-1	694
sub-17	2	314	crossed	different	different	800	left	upper	right	lower	1	734	ses-1	695
sub-17	2	315	crossed	same	different	50	right	lower	right	upper	0	584	ses-1	696
sub-17	2	316	crossed	same	different	300	left	upper	left	lower	1	709	ses-1	697
sub-17	2	317	crossed	same	same	800	left	lower	left	lower	1	598	ses-1	698
sub-17	2	318	crossed	different	same	50	left	lower	right	lower	1	1385	ses-1	699
sub-17	2	319	crossed	same	different	100	left	lower	left	upper	1	690	ses-1	700
sub-17	2	320	crossed	same	different	50	right	lower	right	upper	1	566	ses-1	701
sub-17	2	321	crossed	same	same	300	right	lower	right	lower	1	1136	ses-1	702
sub-17	2	322	crossed	same	same	800	right	lower	right	lower	1	650	ses-1	703
sub-17	2	323	crossed	same	different	300	left	upper	left	lower	1	566	ses-1	704
sub-17	2	324	crossed	same	different	800	right	upper	right	lower	1	526	ses-1	705
sub-17	2	325	crossed	same	same	100	right	lower	right	lower	1	470	ses-1	706
sub-17	2	326	crossed	same	different	50	right	upper	right	lower	1	569	ses-1	707
sub-17	2	327	crossed	different	same	50	left	lower	right	lower	1	696	ses-1	708
sub-17	2	328	crossed	same	different	300	left	upper	left	lower	1	955	ses-1	709
sub-17	2	329	crossed	different	different	800	right	lower	left	upper	1	510	ses-1	710
sub-17	2	330	crossed	different	different	50	left	lower	right	upper	1	728	ses-1	711
sub-17	2	331	crossed	different	different	50	left	upper	right	lower	1	688	ses-1	712
sub-17	2	332	crossed	same	different	800	left	upper	left	lower	1	616	ses-1	713
sub-17	2	333	crossed	same	same	800	right	lower	right	lower	1	604	ses-1	714
sub-17	2	334	crossed	different	different	800	right	lower	left	upper	1	493	ses-1	715
sub-17	2	335	crossed	same	different	50	left	upper	left	lower	1	762	ses-1	716
sub-17	2	336	crossed	same	same	50	right	lower	right	lower	1	558	ses-1	717
sub-17	2	337	crossed	different	same	100	left	lower	right	lower	1	1120	ses-1	718
sub-17	2	338	crossed	same	different	50	right	lower	right	upper	1	607	ses-1	719
sub-17	2	339	crossed	different	different	300	right	upper	left	lower	1	726	ses-1	720
sub-17	2	340	crossed	different	same	100	left	lower	right	lower	1	967	ses-1	721
sub-17	2	341	crossed	same	same	100	left	lower	left	lower	1	697	ses-1	722
sub-17	2	342	crossed	same	same	300	left	lower	left	lower	1	446	ses-1	723
sub-17	2	343	crossed	same	same	100	left	lower	left	lower	1	532	ses-1	724
sub-17	2	344	crossed	same	same	100	left	lower	left	lower	1	488	ses-1	725
sub-17	2	345	crossed	different	different	100	left	upper	right	lower	1	953	ses-1	726
sub-17	2	346	crossed	same	same	50	left	lower	left	lower	1	577	ses-1	727
sub-17	2	347	crossed	same	different	300	left	upper	left	lower	1	765	ses-1	728
sub-17	2	348	crossed	same	same	300	right	lower	right	lower	1	704	ses-1	729
sub-17	2	349	crossed	different	different	50	left	lower	right	upper	1	1055	ses-1	730
sub-17	2	350	crossed	same	different	800	right	lower	right	upper	1	740	ses-1	731
sub-17	2	351	crossed	same	same	100	left	lower	left	lower	0	686	ses-1	732
sub-17	2	352	crossed	different	same	50	left	lower	right	lower	1	672	ses-1	733
sub-17	2	353	crossed	same	same	100	left	lower	left	lower	1	783	ses-1	734
sub-17	2	354	crossed	same	same	300	left	lower	left	lower	1	482	ses-1	735
sub-17	2	355	crossed	same	same	50	left	lower	left	lower	1	575	ses-1	736
sub-17	2	356	crossed	same	same	100	right	lower	right	lower	1	651	ses-1	737
sub-17	2	357	crossed	different	different	300	right	upper	left	lower	1	567	ses-1	738
sub-17	2	358	crossed	same	same	50	right	lower	right	lower	1	649	ses-1	739
sub-17	2	359	crossed	different	same	800	left	lower	right	lower	1	535	ses-1	740
sub-17	2	360	crossed	same	different	800	left	lower	left	upper	1	895	ses-1	741
sub-17	2	361	crossed	same	different	300	right	upper	right	lower	1	532	ses-1	742
sub-17	2	362	crossed	same	different	800	left	lower	left	upper	1	560	ses-1	743
sub-17	2	363	crossed	different	different	50	right	upper	left	lower	1	607	ses-1	744
sub-17	2	364	crossed	same	different	300	left	lower	left	upper	0	559	ses-1	745
sub-17	2	365	crossed	different	same	300	left	lower	right	lower	1	546	ses-1	746
sub-17	2	366	crossed	same	same	300	left	lower	left	lower	1	599	ses-1	747
sub-17	2	367	crossed	different	same	100	right	lower	left	lower	1	817	ses-1	748
sub-17	2	368	crossed	same	same	50	right	lower	right	lower	1	732	ses-1	749
sub-17	2	369	crossed	different	same	100	left	lower	right	lower	1	605	ses-1	750
sub-17	2	370	crossed	same	different	300	right	lower	right	upper	1	939	ses-1	751
sub-17	2	371	crossed	different	different	800	left	lower	right	upper	1	1050	ses-1	752
sub-17	2	372	crossed	same	same	800	right	lower	right	lower	1	554	ses-1	753
sub-17	2	373	crossed	different	same	50	right	lower	left	lower	1	717	ses-1	754
sub-17	2	374	crossed	different	different	800	left	lower	right	upper	1	815	ses-1	755
sub-17	2	375	crossed	different	same	800	right	lower	left	lower	1	622	ses-1	756
sub-17	2	376	crossed	different	different	100	right	upper	left	lower	1	638	ses-1	757
sub-17	2	378	crossed	different	same	800	left	lower	right	lower	1	565	ses-1	758
sub-17	2	379	crossed	different	same	800	right	lower	left	lower	1	544	ses-1	759
sub-17	2	380	crossed	same	same	300	right	lower	right	lower	0	1339	ses-1	760
sub-17	2	381	crossed	different	same	800	right	lower	left	lower	1	537	ses-1	761
sub-17	2	382	crossed	same	different	100	left	upper	left	lower	1	529	ses-1	762
sub-17	2	383	crossed	different	different	50	right	upper	left	lower	1	894	ses-1	763
sub-17	2	384	crossed	different	different	300	right	upper	left	lower	1	909	ses-1	764
sub-17	2	385	crossed	same	same	300	right	lower	right	lower	1	506	ses-1	765
sub-17	2	386	crossed	different	same	800	right	lower	left	lower	1	609	ses-1	766
sub-17	2	387	crossed	same	same	800	left	lower	left	lower	1	570	ses-1	767
sub-17	2	388	crossed	different	same	300	right	lower	left	lower	1	674	ses-1	768
sub-17	1	1	uncrossed	different	different	100	right	lower	left	upper	1	640	ses-1	769
sub-17	1	2	uncrossed	same	same	50	left	lower	left	lower	1	648	ses-1	770
sub-17	1	3	uncrossed	different	same	100	left	lower	right	lower	1	515	ses-1	771
sub-17	1	4	uncrossed	same	different	50	right	upper	right	lower	1	1470	ses-1	772
sub-17	1	5	uncrossed	different	different	300	left	lower	right	upper	1	680	ses-1	773
sub-17	1	6	uncrossed	same	same	800	left	lower	left	lower	1	693	ses-1	774
sub-17	1	7	uncrossed	same	different	50	right	lower	right	upper	1	781	ses-1	775
sub-17	1	8	uncrossed	different	different	50	left	lower	right	upper	1	736	ses-1	776
sub-17	1	9	uncrossed	same	different	100	right	upper	right	lower	1	744	ses-1	777
sub-17	1	10	uncrossed	different	different	300	right	upper	left	lower	1	905	ses-1	778
sub-17	1	11	uncrossed	same	different	50	left	lower	left	upper	1	630	ses-1	779
sub-17	1	12	uncrossed	different	same	100	left	lower	right	lower	1	758	ses-1	780
sub-17	1	13	uncrossed	same	different	100	left	lower	left	upper	1	528	ses-1	781
sub-17	1	14	uncrossed	different	same	300	right	lower	left	lower	1	733	ses-1	782
sub-17	1	15	uncrossed	same	different	800	left	lower	left	upper	1	749	ses-1	783
sub-17	1	16	uncrossed	different	different	800	left	upper	right	lower	1	524	ses-1	784
sub-17	1	17	uncrossed	different	same	50	left	lower	right	lower	1	1771	ses-1	785
sub-17	1	18	uncrossed	same	different	800	left	upper	left	lower	1	551	ses-1	786
sub-17	1	19	uncrossed	same	different	100	left	lower	left	upper	1	513	ses-1	787
sub-17	1	20	uncrossed	different	different	800	right	lower	left	upper	1	510	ses-1	788
sub-17	1	21	uncrossed	different	different	800	left	upper	right	lower	1	714	ses-1	789
sub-17	1	22	uncrossed	different	different	100	right	upper	left	lower	1	682	ses-1	790
sub-17	1	23	uncrossed	different	same	50	right	lower	left	lower	1	595	ses-1	791
sub-17	1	24	uncrossed	same	different	300	left	lower	left	upper	1	920	ses-1	792
sub-17	1	25	uncrossed	same	different	50	right	upper	right	lower	1	557	ses-1	793
sub-17	1	26	uncrossed	same	different	100	right	upper	right	lower	1	469	ses-1	794
sub-17	1	27	uncrossed	same	different	800	left	lower	left	upper	1	1597	ses-1	795
sub-17	1	28	uncrossed	different	same	300	right	lower	left	lower	1	576	ses-1	796
sub-17	1	29	uncrossed	same	same	100	right	lower	right	lower	1	550	ses-1	797
sub-17	1	30	uncrossed	different	different	50	right	upper	left	lower	1	612	ses-1	798
sub-17	1	31	uncrossed	same	same	800	right	lower	right	lower	1	586	ses-1	799
sub-17	1	32	uncrossed	same	different	800	right	upper	right	lower	1	514	ses-1	800
sub-17	1	33	uncrossed	different	different	100	left	lower	right	upper	1	662	ses-1	801
sub-17	1	34	uncrossed	same	different	50	left	upper	left	lower	1	592	ses-1	802
sub-17	1	35	uncrossed	same	different	300	right	upper	right	lower	1	782	ses-1	803
sub-17	1	36	uncrossed	different	same	800	left	lower	right	lower	1	676	ses-1	804
sub-17	1	37	uncrossed	different	different	50	left	upper	right	lower	1	794	ses-1	805
sub-17	1	38	uncrossed	same	different	50	right	upper	right	lower	1	517	ses-1	806
sub-17	1	39	uncrossed	same	same	800	right	lower	right	lower	1	514	ses-1	807
sub-17	1	40	uncrossed	same	different	50	left	lower	left	upper	1	688	ses-1	808
sub-17	1	41	uncrossed	same	same	800	right	lower	right	lower	1	495	ses-1	809
sub-17	1	42	uncrossed	same	different	300	right	lower	right	upper	1	527	ses-1	810
sub-17	1	43	uncrossed	same	same	100	right	lower	right	lower	1	467	ses-1	811
sub-17	1	44	uncrossed	different	same	800	left	lower	right	lower	1	715	ses-1	812
sub-17	1	45	uncrossed	same	different	800	left	lower	left	upper	1	550	ses-1	813
sub-17	1	46	uncrossed	different	same	50	left	lower	right	lower	1	1038	ses-1	814
sub-17	1	47	uncrossed	different	same	100	right	lower	left	lower	1	841	ses-1	815
sub-17	1	48	uncrossed	same	same	300	left	lower	left	lower	1	550	ses-1	816
sub-17	1	49	uncrossed	same	different	50	right	upper	right	lower	1	699	ses-1	817
sub-17	1	50	uncrossed	same	same	800	left	lower	left	lower	1	818	ses-1	818
sub-17	1	51	uncrossed	same	same	100	right	lower	right	lower	1	518	ses-1	819
sub-17	1	52	uncrossed	same	same	100	right	lower	right	lower	1	561	ses-1	820
sub-17	1	55	uncrossed	same	same	50	right	lower	right	lower	1	480	ses-1	821
sub-17	1	58	uncrossed	same	same	300	right	lower	right	lower	1	580	ses-1	822
sub-17	1	61	uncrossed	different	different	800	right	upper	left	lower	1	1096	ses-1	823
sub-17	1	62	uncrossed	different	different	100	right	lower	left	upper	1	707	ses-1	824
sub-17	1	63	uncrossed	same	different	100	right	lower	right	upper	1	699	ses-1	825
sub-17	1	64	uncrossed	different	different	800	right	lower	left	upper	1	591	ses-1	826
sub-17	1	65	uncrossed	same	same	800	right	lower	right	lower	1	1055	ses-1	827
sub-17	1	66	uncrossed	different	same	800	right	lower	left	lower	1	1157	ses-1	828
sub-17	1	67	uncrossed	different	different	300	left	upper	right	lower	0	665	ses-1	829
sub-17	1	69	uncrossed	same	different	800	right	upper	right	lower	1	688	ses-1	830
sub-17	1	70	uncrossed	same	different	100	right	lower	right	upper	1	562	ses-1	831
sub-17	1	73	uncrossed	different	same	100	right	lower	left	lower	0	1091	ses-1	832
sub-17	1	74	uncrossed	same	same	100	right	lower	right	lower	1	478	ses-1	833
sub-17	1	75	uncrossed	different	same	300	right	lower	left	lower	1	726	ses-1	834
sub-17	1	77	uncrossed	same	same	100	left	lower	left	lower	1	1550	ses-1	835
sub-17	1	78	uncrossed	same	same	300	left	lower	left	lower	1	742	ses-1	836
sub-17	1	79	uncrossed	different	same	300	right	lower	left	lower	1	701	ses-1	837
sub-17	1	80	uncrossed	different	different	300	left	lower	right	upper	1	2333	ses-1	838
sub-17	1	81	uncrossed	same	different	800	right	lower	right	upper	1	837	ses-1	839
sub-17	1	82	uncrossed	same	different	800	left	upper	left	lower	1	1066	ses-1	840
sub-17	1	83	uncrossed	different	same	100	left	lower	right	lower	1	1651	ses-1	841
sub-17	1	84	uncrossed	same	same	50	right	lower	right	lower	1	700	ses-1	842
sub-17	1	85	uncrossed	same	different	800	right	lower	right	upper	1	699	ses-1	843
sub-17	1	86	uncrossed	different	different	800	left	lower	right	upper	1	1280	ses-1	844
sub-17	1	87	uncrossed	different	different	50	right	upper	left	lower	1	1476	ses-1	845
sub-17	1	88	uncrossed	same	same	300	left	lower	left	lower	1	1745	ses-1	846
sub-17	1	89	uncrossed	different	same	50	left	lower	right	lower	1	987	ses-1	847
sub-17	1	90	uncrossed	different	same	100	left	lower	right	lower	1	1463	ses-1	848
sub-17	1	91	uncrossed	same	same	300	left	lower	left	lower	1	1268	ses-1	849
sub-17	1	92	uncrossed	same	different	800	right	upper	right	lower	1	979	ses-1	850
sub-17	1	93	uncrossed	same	same	300	right	lower	right	lower	1	596	ses-1	851
sub-17	1	94	uncrossed	different	different	50	right	lower	left	upper	1	725	ses-1	852
sub-17	1	96	uncrossed	different	different	50	right	lower	left	upper	1	853	ses-1	853
sub-17	1	97	uncrossed	same	different	50	left	lower	left	upper	1	2750	ses-1	854
sub-17	1	98	uncrossed	different	same	50	right	lower	left	lower	1	616	ses-1	855
sub-17	1	99	uncrossed	different	same	800	right	lower	left	lower	1	495	ses-1	856
sub-17	1	101	uncrossed	same	different	50	right	lower	right	upper	0	728	ses-1	857
sub-17	1	102	uncrossed	different	different	300	right	lower	left	upper	1	656	ses-1	858
sub-17	1	103	uncrossed	same	different	50	right	upper	right	lower	1	883	ses-1	859
sub-17	1	106	uncrossed	same	same	50	left	lower	left	lower	1	1080	ses-1	860
sub-17	1	107	uncrossed	different	different	50	right	lower	left	upper	1	651	ses-1	861
sub-17	1	108	uncrossed	same	same	800	right	lower	right	lower	1	1215	ses-1	862
sub-17	1	109	uncrossed	different	same	800	right	lower	left	lower	1	1632	ses-1	863
sub-17	1	110	uncrossed	different	same	100	left	lower	right	lower	1	2896	ses-1	864
sub-17	1	111	uncrossed	same	same	300	left	lower	left	lower	1	1747	ses-1	865
sub-17	1	113	uncrossed	same	same	800	left	lower	left	lower	1	1870	ses-1	866
sub-17	1	115	uncrossed	different	same	50	left	lower	right	lower	0	884	ses-1	867
sub-17	1	116	uncrossed	different	same	50	left	lower	right	lower	0	1490	ses-1	868
sub-17	1	117	uncrossed	same	same	50	left	lower	left	lower	1	915	ses-1	869
sub-17	1	118	uncrossed	same	different	100	left	upper	left	lower	1	721	ses-1	870
sub-17	1	119	uncrossed	different	different	100	right	lower	left	upper	1	562	ses-1	871
sub-17	1	120	uncrossed	different	same	300	left	lower	right	lower	0	710	ses-1	872
sub-17	1	121	uncrossed	same	different	100	right	lower	right	upper	1	695	ses-1	873
sub-17	1	122	uncrossed	different	different	300	right	upper	left	lower	1	1285	ses-1	874
sub-17	1	123	uncrossed	different	same	300	left	lower	right	lower	0	787	ses-1	875
sub-17	1	124	uncrossed	different	same	100	right	lower	left	lower	0	561	ses-1	876
sub-17	1	125	uncrossed	different	same	800	right	lower	left	lower	1	762	ses-1	877
sub-17	1	126	uncrossed	same	different	300	left	upper	left	lower	1	1651	ses-1	878
sub-17	1	127	uncrossed	same	same	100	left	lower	left	lower	1	1315	ses-1	879
sub-17	1	128	uncrossed	same	different	300	right	lower	right	upper	1	750	ses-1	880
sub-17	1	129	uncrossed	different	different	300	left	lower	right	upper	0	791	ses-1	881
sub-17	1	130	uncrossed	same	same	50	left	lower	left	lower	1	1923	ses-1	882
sub-17	1	131	uncrossed	same	same	50	right	lower	right	lower	1	510	ses-1	883
sub-17	1	132	uncrossed	different	same	50	left	lower	right	lower	1	695	ses-1	884
sub-17	1	133	uncrossed	different	same	300	right	lower	left	lower	1	1238	ses-1	885
sub-17	1	134	uncrossed	same	different	800	left	upper	left	lower	1	247	ses-1	886
sub-17	1	135	uncrossed	same	different	300	right	upper	right	lower	1	793	ses-1	887
sub-17	1	136	uncrossed	different	same	800	left	lower	right	lower	1	1270	ses-1	888
sub-17	1	137	uncrossed	same	different	800	right	upper	right	lower	1	996	ses-1	889
sub-17	1	138	uncrossed	different	different	100	left	upper	right	lower	1	829	ses-1	890
sub-17	1	139	uncrossed	same	same	300	right	lower	right	lower	1	688	ses-1	891
sub-17	1	140	uncrossed	different	same	800	right	lower	left	lower	1	530	ses-1	892
sub-17	1	141	uncrossed	different	same	100	right	lower	left	lower	1	995	ses-1	893
sub-17	1	142	uncrossed	different	different	50	left	upper	right	lower	1	497	ses-1	894
sub-17	1	143	uncrossed	same	different	300	right	upper	right	lower	1	578	ses-1	895
sub-17	1	144	uncrossed	different	same	800	right	lower	left	lower	1	517	ses-1	896
sub-17	1	145	uncrossed	different	different	100	right	lower	left	upper	1	589	ses-1	897
sub-17	1	147	uncrossed	different	same	800	right	lower	left	lower	1	879	ses-1	898
sub-17	1	148	uncrossed	different	same	50	left	lower	right	lower	1	1020	ses-1	899
sub-17	1	149	uncrossed	same	same	300	right	lower	right	lower	1	615	ses-1	900
sub-17	1	150	uncrossed	same	same	100	left	lower	left	lower	1	598	ses-1	901
sub-17	1	151	uncrossed	same	same	800	left	lower	left	lower	1	559	ses-1	902
sub-17	1	152	uncrossed	same	different	50	left	lower	left	upper	1	496	ses-1	903
sub-17	1	153	uncrossed	same	different	800	right	upper	right	lower	1	547	ses-1	904
sub-17	1	154	uncrossed	different	different	800	right	upper	left	lower	1	501	ses-1	905
sub-17	1	155	uncrossed	different	different	50	right	upper	left	lower	1	608	ses-1	906
sub-17	1	157	uncrossed	different	different	100	right	upper	left	lower	1	707	ses-1	907
sub-17	1	158	uncrossed	different	different	800	right	lower	left	upper	1	574	ses-1	908
sub-17	1	159	uncrossed	different	same	50	right	lower	left	lower	1	685	ses-1	909
sub-17	1	160	uncrossed	same	different	50	left	upper	left	lower	1	625	ses-1	910
sub-17	1	161	uncrossed	different	different	800	left	lower	right	upper	1	479	ses-1	911
sub-17	1	162	uncrossed	same	same	800	left	lower	left	lower	1	553	ses-1	912
sub-17	1	163	uncrossed	different	different	50	left	lower	right	upper	1	592	ses-1	913
sub-17	1	164	uncrossed	same	same	100	left	lower	left	lower	1	474	ses-1	914
sub-17	1	165	uncrossed	different	same	300	left	lower	right	lower	1	494	ses-1	915
sub-17	1	166	uncrossed	different	different	300	right	upper	left	lower	1	773	ses-1	916
sub-17	1	167	uncrossed	same	different	50	left	upper	left	lower	1	705	ses-1	917
sub-17	1	168	uncrossed	same	same	300	right	lower	right	lower	1	561	ses-1	918
sub-17	1	169	uncrossed	different	same	300	right	lower	left	lower	1	557	ses-1	919
sub-17	1	170	uncrossed	same	same	300	right	lower	right	lower	1	620	ses-1	920
sub-17	1	171	uncrossed	different	same	50	right	lower	left	lower	1	626	ses-1	921
sub-17	1	172	uncrossed	different	same	800	left	lower	right	lower	1	741	ses-1	922
sub-17	1	173	uncrossed	same	same	300	right	lower	right	lower	1	412	ses-1	923
sub-17	1	174	uncrossed	different	same	100	left	lower	right	lower	1	622	ses-1	924
sub-17	1	175	uncrossed	different	same	100	left	lower	right	lower	1	707	ses-1	925
sub-17	1	176	uncrossed	same	different	50	right	upper	right	lower	1	590	ses-1	926
sub-17	1	177	uncrossed	same	different	50	left	lower	left	upper	1	611	ses-1	927
sub-17	1	178	uncrossed	different	different	100	right	upper	left	lower	1	621	ses-1	928
sub-17	1	179	uncrossed	different	same	300	right	lower	left	lower	1	659	ses-1	929
sub-17	1	180	uncrossed	different	different	800	right	lower	left	upper	1	483	ses-1	930
sub-17	1	181	uncrossed	same	different	300	left	lower	left	upper	1	699	ses-1	931
sub-17	1	182	uncrossed	different	same	50	right	lower	left	lower	1	554	ses-1	932
sub-17	1	183	uncrossed	same	same	50	right	lower	right	lower	1	540	ses-1	933
sub-17	1	184	uncrossed	same	same	100	left	lower	left	lower	1	571	ses-1	934
sub-17	1	185	uncrossed	different	different	100	right	upper	left	lower	1	684	ses-1	935
sub-17	1	186	uncrossed	different	different	800	right	upper	left	lower	1	593	ses-1	936
sub-17	1	187	uncrossed	different	different	50	right	lower	left	upper	1	668	ses-1	937
sub-17	1	188	uncrossed	different	same	800	left	lower	right	lower	1	527	ses-1	938
sub-17	1	189	uncrossed	different	same	800	left	lower	right	lower	1	472	ses-1	939
sub-17	1	190	uncrossed	different	different	100	left	upper	right	lower	1	657	ses-1	940
sub-17	1	191	uncrossed	same	different	800	right	lower	right	upper	1	552	ses-1	941
sub-17	1	192	uncrossed	different	different	100	left	lower	right	upper	1	555	ses-1	942
sub-17	1	193	uncrossed	same	same	50	left	lower	left	lower	1	887	ses-1	943
sub-17	1	194	uncrossed	different	different	50	left	lower	right	upper	1	598	ses-1	944
sub-17	1	195	uncrossed	same	different	300	left	lower	left	upper	1	592	ses-1	945
sub-17	1	196	uncrossed	same	same	100	right	lower	right	lower	1	534	ses-1	946
sub-17	1	197	uncrossed	same	same	300	right	lower	right	lower	1	435	ses-1	947
sub-17	1	198	uncrossed	different	different	50	right	upper	left	lower	1	563	ses-1	948
sub-17	1	199	uncrossed	different	different	300	right	lower	left	upper	1	667	ses-1	949
sub-17	1	200	uncrossed	same	different	100	right	upper	right	lower	1	538	ses-1	950
sub-17	1	201	uncrossed	same	different	100	left	lower	left	upper	1	619	ses-1	951
sub-17	1	202	uncrossed	same	different	50	left	upper	left	lower	1	490	ses-1	952
sub-17	1	203	uncrossed	different	same	100	left	lower	right	lower	1	713	ses-1	953
sub-17	1	204	uncrossed	different	same	50	left	lower	right	lower	1	726	ses-1	954
sub-17	1	205	uncrossed	different	different	50	left	upper	right	lower	1	556	ses-1	955
sub-17	1	206	uncrossed	same	same	100	left	lower	left	lower	1	576	ses-1	956
sub-17	1	207	uncrossed	same	same	100	left	lower	left	lower	1	471	ses-1	957
sub-17	1	208	uncrossed	same	different	100	left	upper	left	lower	1	439	ses-1	958
sub-17	1	209	uncrossed	different	same	800	right	lower	left	lower	1	677	ses-1	959
sub-17	1	210	uncrossed	different	different	100	right	lower	left	upper	1	656	ses-1	960
sub-17	1	211	uncrossed	same	same	800	right	lower	right	lower	1	637	ses-1	961
sub-17	1	212	uncrossed	different	same	50	right	lower	left	lower	1	554	ses-1	962
sub-17	1	213	uncrossed	different	same	100	right	lower	left	lower	1	829	ses-1	963
sub-17	1	214	uncrossed	same	same	800	left	lower	left	lower	1	564	ses-1	964
sub-17	1	215	uncrossed	different	different	100	left	upper	right	lower	1	730	ses-1	965
sub-17	1	216	uncrossed	different	same	100	right	lower	left	lower	1	842	ses-1	966
sub-17	1	217	uncrossed	same	same	300	right	lower	right	lower	1	641	ses-1	967
sub-17	1	218	uncrossed	different	same	300	left	lower	right	lower	1	565	ses-1	968
sub-17	1	219	uncrossed	same	different	100	left	upper	left	lower	1	659	ses-1	969
sub-17	1	220	uncrossed	same	same	800	right	lower	right	lower	1	802	ses-1	970
sub-17	1	221	uncrossed	different	different	100	right	lower	left	upper	1	574	ses-1	971
sub-17	1	222	uncrossed	different	same	50	right	lower	left	lower	1	812	ses-1	972
sub-17	1	223	uncrossed	same	same	800	right	lower	right	lower	1	569	ses-1	973
sub-17	1	224	uncrossed	different	same	300	left	lower	right	lower	1	699	ses-1	974
sub-17	1	225	uncrossed	different	same	800	right	lower	left	lower	1	546	ses-1	975
sub-17	1	226	uncrossed	same	same	50	right	lower	right	lower	1	624	ses-1	976
sub-17	1	227	uncrossed	different	same	300	right	lower	left	lower	1	577	ses-1	977
sub-17	1	228	uncrossed	different	same	800	left	lower	right	lower	1	581	ses-1	978
sub-17	1	229	uncrossed	different	same	300	left	lower	right	lower	1	499	ses-1	979
sub-17	1	230	uncrossed	same	same	800	right	lower	right	lower	1	670	ses-1	980
sub-17	1	231	uncrossed	different	same	300	left	lower	right	lower	1	628	ses-1	981
sub-17	1	232	uncrossed	same	same	50	left	lower	left	lower	1	1191	ses-1	982
sub-17	1	233	uncrossed	different	different	50	right	upper	left	lower	1	601	ses-1	983
sub-17	1	234	uncrossed	same	same	800	right	lower	right	lower	1	583	ses-1	984
sub-17	1	235	uncrossed	same	different	300	right	lower	right	upper	1	562	ses-1	985
sub-17	1	236	uncrossed	different	different	300	right	lower	left	upper	1	592	ses-1	986
sub-17	1	237	uncrossed	same	same	100	left	lower	left	lower	1	673	ses-1	987
sub-17	1	238	uncrossed	same	different	800	right	upper	right	lower	1	588	ses-1	988
sub-17	1	239	uncrossed	same	different	100	left	lower	left	upper	1	607	ses-1	989
sub-17	1	240	uncrossed	same	different	50	left	lower	left	upper	1	1345	ses-1	990
sub-17	1	241	uncrossed	same	same	800	right	lower	right	lower	1	636	ses-1	991
sub-17	1	242	uncrossed	different	different	800	left	upper	right	lower	1	784	ses-1	992
sub-17	1	243	uncrossed	different	same	300	right	lower	left	lower	1	588	ses-1	993
sub-17	1	244	uncrossed	different	different	300	right	lower	left	upper	1	492	ses-1	994
sub-17	1	245	uncrossed	different	different	50	left	upper	right	lower	1	520	ses-1	995
sub-17	1	246	uncrossed	different	different	100	left	upper	right	lower	1	545	ses-1	996
sub-17	1	247	uncrossed	different	same	50	right	lower	left	lower	1	638	ses-1	997
sub-17	1	248	uncrossed	different	different	800	right	lower	left	upper	1	612	ses-1	998
sub-17	1	249	uncrossed	different	same	300	left	lower	right	lower	1	495	ses-1	999
sub-17	1	250	uncrossed	different	same	50	left	lower	right	lower	1	524	ses-1	1000
sub-17	1	251	uncrossed	same	different	800	right	lower	right	upper	1	672	ses-1	1001
sub-17	1	252	uncrossed	same	different	300	left	lower	left	upper	1	540	ses-1	1002
sub-17	1	253	uncrossed	same	different	800	left	upper	left	lower	1	566	ses-1	1003
sub-17	1	254	uncrossed	same	same	50	right	lower	right	lower	1	583	ses-1	1004
sub-17	1	255	uncrossed	different	same	100	right	lower	left	lower	1	752	ses-1	1005
sub-17	1	256	uncrossed	different	same	300	left	lower	right	lower	1	1026	ses-1	1006
sub-17	1	257	uncrossed	same	different	800	left	lower	left	upper	1	478	ses-1	1007
sub-17	1	258	uncrossed	same	different	800	right	lower	right	upper	1	600	ses-1	1008
sub-17	1	259	uncrossed	different	same	100	left	lower	right	lower	1	602	ses-1	1009
sub-17	1	260	uncrossed	same	same	800	left	lower	left	lower	1	548	ses-1	1010
sub-17	1	261	uncrossed	same	same	50	right	lower	right	lower	1	563	ses-1	1011
sub-17	1	262	uncrossed	different	different	300	left	upper	right	lower	1	555	ses-1	1012
sub-17	1	263	uncrossed	same	same	100	right	lower	right	lower	1	725	ses-1	1013
sub-17	1	264	uncrossed	same	different	50	left	upper	left	lower	1	918	ses-1	1014
sub-17	1	265	uncrossed	same	different	100	right	upper	right	lower	1	555	ses-1	1015
sub-17	1	266	uncrossed	different	same	800	right	lower	left	lower	1	529	ses-1	1016
sub-17	1	267	uncrossed	different	same	100	right	lower	left	lower	1	1073	ses-1	1017
sub-17	1	268	uncrossed	different	same	800	left	lower	right	lower	1	494	ses-1	1018
sub-17	1	269	uncrossed	different	different	800	right	lower	left	upper	1	485	ses-1	1019
sub-17	1	270	uncrossed	same	same	100	left	lower	left	lower	1	962	ses-1	1020
sub-17	1	271	uncrossed	different	same	300	left	lower	right	lower	1	596	ses-1	1021
sub-17	1	272	uncrossed	different	different	100	right	upper	left	lower	1	597	ses-1	1022
sub-17	1	273	uncrossed	different	same	800	right	lower	left	lower	1	577	ses-1	1023
sub-17	1	274	uncrossed	same	same	50	right	lower	right	lower	1	660	ses-1	1024
sub-17	1	275	uncrossed	different	different	100	left	lower	right	upper	1	561	ses-1	1025
sub-17	1	276	uncrossed	same	same	100	left	lower	left	lower	1	690	ses-1	1026
sub-17	1	277	uncrossed	different	different	300	left	upper	right	lower	1	594	ses-1	1027
sub-17	1	278	uncrossed	different	same	100	right	lower	left	lower	1	621	ses-1	1028
sub-17	1	279	uncrossed	different	different	800	left	upper	right	lower	1	487	ses-1	1029
sub-17	1	280	uncrossed	same	same	50	right	lower	right	lower	1	680	ses-1	1030
sub-17	1	281	uncrossed	same	same	100	right	lower	right	lower	1	537	ses-1	1031
sub-17	1	282	uncrossed	different	different	800	left	upper	right	lower	1	779	ses-1	1032
sub-17	1	283	uncrossed	different	different	800	left	lower	right	upper	1	526	ses-1	1033
sub-17	1	284	uncrossed	different	same	300	right	lower	left	lower	1	832	ses-1	1034
sub-17	1	285	uncrossed	same	same	50	left	lower	left	lower	1	787	ses-1	1035
sub-17	1	286	uncrossed	same	different	800	left	lower	left	upper	1	536	ses-1	1036
sub-17	1	287	uncrossed	same	different	300	left	upper	left	lower	1	604	ses-1	1037
sub-17	1	288	uncrossed	same	same	100	right	lower	right	lower	1	492	ses-1	1038
sub-17	1	289	uncrossed	same	different	300	right	lower	right	upper	1	551	ses-1	1039
sub-17	1	290	uncrossed	same	different	100	right	upper	right	lower	1	475	ses-1	1040
sub-17	1	291	uncrossed	same	different	300	right	upper	right	lower	1	502	ses-1	1041
sub-17	1	292	uncrossed	same	different	300	right	lower	right	upper	1	442	ses-1	1042
sub-17	1	293	uncrossed	different	different	50	left	upper	right	lower	1	729	ses-1	1043
sub-17	1	294	uncrossed	same	different	300	right	upper	right	lower	1	582	ses-1	1044
sub-17	1	295	uncrossed	same	same	50	right	lower	right	lower	1	563	ses-1	1045
sub-17	1	296	uncrossed	same	different	50	right	lower	right	upper	1	484	ses-1	1046
sub-17	1	297	uncrossed	same	same	50	left	lower	left	lower	1	607	ses-1	1047
sub-17	1	298	uncrossed	same	different	800	right	lower	right	upper	1	541	ses-1	1048
sub-17	1	299	uncrossed	same	same	800	left	lower	left	lower	1	593	ses-1	1049
sub-17	1	300	uncrossed	different	different	800	right	upper	left	lower	1	559	ses-1	1050
sub-17	1	301	uncrossed	different	different	300	left	lower	right	upper	1	755	ses-1	1051
sub-17	1	302	uncrossed	different	different	800	left	lower	right	upper	1	488	ses-1	1052
sub-17	1	303	uncrossed	different	same	50	right	lower	left	lower	1	658	ses-1	1053
sub-17	1	304	uncrossed	same	same	100	right	lower	right	lower	1	692	ses-1	1054
sub-17	1	305	uncrossed	same	same	300	left	lower	left	lower	1	621	ses-1	1055
sub-17	1	307	uncrossed	same	different	800	left	upper	left	lower	1	643	ses-1	1056
sub-17	1	308	uncrossed	different	different	50	right	upper	left	lower	1	618	ses-1	1057
sub-17	1	309	uncrossed	same	different	300	left	lower	left	upper	1	689	ses-1	1058
sub-17	1	310	uncrossed	same	same	50	left	lower	left	lower	1	630	ses-1	1059
sub-17	1	311	uncrossed	different	different	800	left	lower	right	upper	1	565	ses-1	1060
sub-17	1	312	uncrossed	same	same	300	right	lower	right	lower	1	631	ses-1	1061
sub-17	1	313	uncrossed	different	same	800	left	lower	right	lower	1	1049	ses-1	1062
sub-17	1	314	uncrossed	same	different	300	left	upper	left	lower	1	638	ses-1	1063
sub-17	1	315	uncrossed	same	different	100	left	lower	left	upper	1	632	ses-1	1064
sub-17	1	316	uncrossed	different	same	50	right	lower	left	lower	1	556	ses-1	1065
sub-17	1	317	uncrossed	different	different	800	left	lower	right	upper	1	475	ses-1	1066
sub-17	1	318	uncrossed	different	different	50	right	lower	left	upper	1	660	ses-1	1067
sub-17	1	319	uncrossed	same	same	50	right	lower	right	lower	0	741	ses-1	1068
sub-17	1	320	uncrossed	different	same	50	left	lower	right	lower	1	690	ses-1	1069
sub-17	1	321	uncrossed	different	same	100	left	lower	right	lower	1	694	ses-1	1070
sub-17	1	322	uncrossed	different	different	100	left	upper	right	lower	1	522	ses-1	1071
sub-17	1	323	uncrossed	same	different	50	right	lower	right	upper	1	924	ses-1	1072
sub-17	1	324	uncrossed	same	different	50	right	lower	right	upper	1	418	ses-1	1073
sub-17	1	325	uncrossed	same	same	300	left	lower	left	lower	1	611	ses-1	1074
sub-17	1	326	uncrossed	same	same	300	left	lower	left	lower	1	423	ses-1	1075
sub-17	1	327	uncrossed	different	same	800	left	lower	right	lower	1	551	ses-1	1076
sub-17	1	328	uncrossed	same	same	50	left	lower	left	lower	1	559	ses-1	1077
sub-17	1	329	uncrossed	different	different	300	right	upper	left	lower	1	963	ses-1	1078
sub-17	1	330	uncrossed	same	different	50	left	upper	left	lower	1	535	ses-1	1079
sub-17	1	331	uncrossed	different	different	100	right	upper	left	lower	1	548	ses-1	1080
sub-17	1	332	uncrossed	different	same	100	right	lower	left	lower	1	625	ses-1	1081
sub-17	1	333	uncrossed	different	same	300	right	lower	left	lower	1	509	ses-1	1082
sub-17	1	334	uncrossed	different	same	100	left	lower	right	lower	1	476	ses-1	1083
sub-17	1	335	uncrossed	different	different	50	right	lower	left	upper	1	426	ses-1	1084
sub-17	1	336	uncrossed	same	same	50	right	lower	right	lower	1	691	ses-1	1085
sub-17	1	337	uncrossed	same	same	300	right	lower	right	lower	1	812	ses-1	1086
sub-17	1	338	uncrossed	different	different	100	left	lower	right	upper	1	597	ses-1	1087
sub-17	1	339	uncrossed	same	same	300	right	lower	right	lower	1	596	ses-1	1088
sub-17	1	340	uncrossed	same	same	100	right	lower	right	lower	1	424	ses-1	1089
sub-17	1	341	uncrossed	different	same	800	right	lower	left	lower	1	407	ses-1	1090
sub-17	1	342	uncrossed	same	different	300	left	lower	left	upper	0	524	ses-1	1091
sub-17	1	343	uncrossed	same	different	300	left	upper	left	lower	1	520	ses-1	1092
sub-17	1	344	uncrossed	same	same	300	left	lower	left	lower	1	460	ses-1	1093
sub-17	1	345	uncrossed	different	same	100	right	lower	left	lower	1	616	ses-1	1094
sub-17	1	346	uncrossed	same	same	300	left	lower	left	lower	1	504	ses-1	1095
sub-17	1	347	uncrossed	different	different	50	left	lower	right	upper	1	562	ses-1	1096
sub-17	1	348	uncrossed	same	same	100	left	lower	left	lower	1	722	ses-1	1097
sub-17	1	349	uncrossed	different	same	50	right	lower	left	lower	1	525	ses-1	1098
sub-17	1	350	uncrossed	different	different	300	left	upper	right	lower	1	599	ses-1	1099
sub-17	1	351	uncrossed	different	same	300	left	lower	right	lower	1	533	ses-1	1100
sub-17	1	352	uncrossed	same	different	100	right	lower	right	upper	1	672	ses-1	1101
sub-17	1	353	uncrossed	same	different	100	right	lower	right	upper	1	542	ses-1	1102
sub-17	1	354	uncrossed	different	same	50	left	lower	right	lower	1	530	ses-1	1103
sub-17	1	355	uncrossed	different	same	300	left	lower	right	lower	1	620	ses-1	1104
sub-17	1	356	uncrossed	different	different	100	left	lower	right	upper	1	517	ses-1	1105
sub-17	1	357	uncrossed	same	different	300	right	lower	right	upper	1	731	ses-1	1106
sub-17	1	358	uncrossed	same	different	100	left	upper	left	lower	1	1022	ses-1	1107
sub-17	1	359	uncrossed	different	different	50	left	lower	right	upper	1	588	ses-1	1108
sub-17	1	360	uncrossed	different	different	300	right	lower	left	upper	1	548	ses-1	1109
sub-17	1	361	uncrossed	different	different	300	right	upper	left	lower	1	482	ses-1	1110
sub-17	1	362	uncrossed	same	same	800	left	lower	left	lower	1	620	ses-1	1111
sub-17	1	363	uncrossed	same	same	100	right	lower	right	lower	1	1659	ses-1	1112
sub-17	1	364	uncrossed	same	different	300	right	upper	right	lower	1	468	ses-1	1113
sub-17	1	365	uncrossed	same	same	300	left	lower	left	lower	1	523	ses-1	1114
sub-17	1	366	uncrossed	same	same	800	left	lower	left	lower	1	568	ses-1	1115
sub-17	1	367	uncrossed	same	same	800	left	lower	left	lower	1	490	ses-1	1116
sub-17	1	368	uncrossed	different	same	300	right	lower	left	lower	1	543	ses-1	1117
sub-17	1	369	uncrossed	different	same	50	right	lower	left	lower	1	1944	ses-1	1118
sub-17	1	370	uncrossed	different	different	300	left	upper	right	lower	1	862	ses-1	1119
sub-17	1	371	uncrossed	different	different	50	left	upper	right	lower	1	763	ses-1	1120
sub-17	1	372	uncrossed	same	different	50	right	lower	right	upper	1	799	ses-1	1121
sub-17	1	373	uncrossed	different	same	800	left	lower	right	lower	1	615	ses-1	1122
sub-17	1	374	uncrossed	different	same	100	left	lower	right	lower	1	621	ses-1	1123
sub-17	1	375	uncrossed	different	different	100	left	upper	right	lower	1	682	ses-1	1124
sub-17	1	376	uncrossed	different	same	800	left	lower	right	lower	1	506	ses-1	1125
sub-17	1	377	uncrossed	same	different	100	right	upper	right	lower	1	666	ses-1	1126
sub-17	1	378	uncrossed	same	different	100	left	upper	left	lower	1	596	ses-1	1127
sub-17	1	379	uncrossed	different	different	300	left	lower	right	upper	1	455	ses-1	1128
sub-17	1	380	uncrossed	same	different	800	left	lower	left	upper	1	676	ses-1	1129
sub-17	1	381	uncrossed	different	different	300	left	lower	right	upper	1	469	ses-1	1130
sub-17	1	382	uncrossed	different	different	300	right	upper	left	lower	1	623	ses-1	1131
sub-17	1	383	uncrossed	different	different	300	left	upper	right	lower	1	596	ses-1	1132
sub-17	1	384	uncrossed	same	same	100	left	lower	left	lower	1	581	ses-1	1133
sub-17	1	385	uncrossed	same	same	50	left	lower	left	lower	1	662	ses-1	1134
sub-17	1	386	uncrossed	same	same	300	left	lower	left	lower	1	435	ses-1	1135
sub-17	1	387	uncrossed	same	different	100	left	upper	left	lower	1	447	ses-1	1136
sub-17	1	388	uncrossed	different	same	100	right	lower	left	lower	1	689	ses-1	1137
sub-17	1	389	uncrossed	same	same	800	left	lower	left	lower	1	588	ses-1	1138
sub-17	1	390	uncrossed	different	different	800	left	upper	right	lower	1	491	ses-1	1139
sub-17	1	391	uncrossed	different	different	100	left	lower	right	upper	1	579	ses-1	1140
sub-17	1	392	uncrossed	same	same	800	right	lower	right	lower	1	557	ses-1	1141
sub-17	1	393	uncrossed	same	different	100	right	lower	right	upper	1	483	ses-1	1142
sub-17	1	394	uncrossed	same	different	300	left	upper	left	lower	1	765	ses-1	1143
sub-17	1	395	uncrossed	different	same	50	left	lower	right	lower	1	623	ses-1	1144
sub-17	1	396	uncrossed	same	same	50	left	lower	left	lower	1	744	ses-1	1145
sub-17	1	397	uncrossed	same	different	300	left	upper	left	lower	1	595	ses-1	1146
sub-17	1	398	uncrossed	different	different	800	right	upper	left	lower	1	696	ses-1	1147
sub-17	1	399	uncrossed	same	different	800	left	upper	left	lower	1	641	ses-1	1148
sub-17	1	400	uncrossed	same	different	100	left	lower	left	upper	1	618	ses-1	1149
sub-17	1	401	uncrossed	different	different	50	left	lower	right	upper	1	545	ses-1	1150
sub-17	1	402	uncrossed	different	different	300	right	lower	left	upper	1	593	ses-1	1151
sub-17	1	403	uncrossed	different	different	800	right	upper	left	lower	1	522	ses-1	1152
sub-17	2	1	uncrossed	same	same	800	left	lower	left	lower	1	490	ses-1	1153
sub-17	2	2	uncrossed	different	different	300	right	upper	left	lower	1	621	ses-1	1154
sub-17	2	3	uncrossed	same	different	300	right	lower	right	upper	1	583	ses-1	1155
sub-17	2	4	uncrossed	same	same	300	left	lower	left	lower	1	471	ses-1	1156
sub-17	2	5	uncrossed	same	different	100	right	upper	right	lower	1	516	ses-1	1157
sub-17	2	6	uncrossed	same	different	100	right	upper	right	lower	1	410	ses-1	1158
sub-17	2	7	uncrossed	same	same	100	left	lower	left	lower	1	485	ses-1	1159
sub-17	2	8	uncrossed	different	same	800	right	lower	left	lower	1	644	ses-1	1160
sub-17	2	9	uncrossed	different	different	800	right	lower	left	upper	1	603	ses-1	1161
sub-17	2	10	uncrossed	different	same	300	left	lower	right	lower	1	622	ses-1	1162
sub-17	2	11	uncrossed	different	same	50	right	lower	left	lower	1	616	ses-1	1163
sub-17	2	12	uncrossed	different	same	50	left	lower	right	lower	1	618	ses-1	1164
sub-17	2	13	uncrossed	same	same	800	left	lower	left	lower	1	604	ses-1	1165
sub-17	2	14	uncrossed	different	same	50	left	lower	right	lower	1	515	ses-1	1166
sub-17	2	15	uncrossed	different	same	100	left	lower	right	lower	1	473	ses-1	1167
sub-17	2	16	uncrossed	same	same	800	left	lower	left	lower	1	544	ses-1	1168
sub-17	2	17	uncrossed	different	same	300	right	lower	left	lower	1	436	ses-1	1169
sub-17	2	18	uncrossed	different	different	800	left	upper	right	lower	1	525	ses-1	1170
sub-17	2	19	uncrossed	same	same	800	left	lower	left	lower	1	500	ses-1	1171
sub-17	2	20	uncrossed	different	different	300	left	upper	right	lower	1	608	ses-1	1172
sub-17	2	21	uncrossed	same	different	50	right	upper	right	lower	1	697	ses-1	1173
sub-17	2	22	uncrossed	same	different	300	left	lower	left	upper	1	699	ses-1	1174
sub-17	2	23	uncrossed	different	same	300	left	lower	right	lower	1	430	ses-1	1175
sub-17	2	24	uncrossed	same	same	100	right	lower	right	lower	1	552	ses-1	1176
sub-17	2	25	uncrossed	same	same	50	left	lower	left	lower	1	540	ses-1	1177
sub-17	2	26	uncrossed	same	different	800	right	lower	right	upper	1	540	ses-1	1178
sub-17	2	27	uncrossed	different	same	800	right	lower	left	lower	1	492	ses-1	1179
sub-17	2	28	uncrossed	same	same	100	right	lower	right	lower	1	512	ses-1	1180
sub-17	2	29	uncrossed	same	different	50	left	lower	left	upper	1	525	ses-1	1181
sub-17	2	30	uncrossed	different	different	800	right	lower	left	upper	1	473	ses-1	1182
sub-17	2	31	uncrossed	different	same	300	right	lower	left	lower	1	571	ses-1	1183
sub-17	2	32	uncrossed	same	different	300	left	upper	left	lower	1	574	ses-1	1184
sub-17	2	33	uncrossed	same	different	100	left	upper	left	lower	1	490	ses-1	1185
sub-17	2	34	uncrossed	same	different	100	right	lower	right	upper	1	540	ses-1	1186
sub-17	2	35	uncrossed	different	different	50	right	lower	left	upper	1	536	ses-1	1187
sub-17	2	36	uncrossed	same	same	100	left	lower	left	lower	1	487	ses-1	1188
sub-17	2	37	uncrossed	same	different	800	right	upper	right	lower	1	488	ses-1	1189
sub-17	2	38	uncrossed	same	same	100	right	lower	right	lower	1	565	ses-1	1190
sub-17	2	39	uncrossed	same	different	800	right	lower	right	upper	1	437	ses-1	1191
sub-17	2	40	uncrossed	same	same	100	left	lower	left	lower	1	539	ses-1	1192
sub-17	2	41	uncrossed	different	different	100	right	lower	left	upper	1	567	ses-1	1193
sub-17	2	42	uncrossed	same	same	50	left	lower	left	lower	1	526	ses-1	1194
sub-17	2	43	uncrossed	same	different	300	right	upper	right	lower	1	473	ses-1	1195
sub-17	2	44	uncrossed	different	different	100	left	lower	right	upper	1	594	ses-1	1196
sub-17	2	45	uncrossed	same	different	300	left	upper	left	lower	1	572	ses-1	1197
sub-17	2	46	uncrossed	same	different	300	right	upper	right	lower	1	511	ses-1	1198
sub-17	2	47	uncrossed	different	different	300	right	lower	left	upper	1	464	ses-1	1199
sub-17	2	48	uncrossed	different	same	800	right	lower	left	lower	1	528	ses-1	1200
sub-17	2	49	uncrossed	same	same	100	left	lower	left	lower	1	542	ses-1	1201
sub-17	2	50	uncrossed	different	same	800	right	lower	left	lower	1	423	ses-1	1202
sub-17	2	51	uncrossed	same	different	300	left	lower	left	upper	0	483	ses-1	1203
sub-17	2	52	uncrossed	different	different	800	left	lower	right	upper	1	495	ses-1	1204
sub-17	2	53	uncrossed	same	same	300	left	lower	left	lower	1	476	ses-1	1205
sub-17	2	54	uncrossed	same	same	300	right	lower	right	lower	1	439	ses-1	1206
sub-17	2	56	uncrossed	same	same	50	left	lower	left	lower	1	681	ses-1	1207
sub-17	2	57	uncrossed	different	same	50	left	lower	right	lower	1	644	ses-1	1208
sub-17	2	58	uncrossed	different	same	100	left	lower	right	lower	1	534	ses-1	1209
sub-17	2	59	uncrossed	different	same	50	right	lower	left	lower	1	742	ses-1	1210
sub-17	2	60	uncrossed	different	different	300	left	upper	right	lower	1	880	ses-1	1211
sub-17	2	61	uncrossed	same	different	100	right	lower	right	upper	1	480	ses-1	1212
sub-17	2	62	uncrossed	different	different	800	left	upper	right	lower	1	562	ses-1	1213
sub-17	2	63	uncrossed	same	same	800	right	lower	right	lower	1	485	ses-1	1214
sub-17	2	64	uncrossed	different	same	800	left	lower	right	lower	1	524	ses-1	1215
sub-17	2	66	uncrossed	same	same	50	right	lower	right	lower	1	662	ses-1	1216
sub-17	2	67	uncrossed	different	different	100	right	lower	left	upper	1	546	ses-1	1217
sub-17	2	68	uncrossed	different	same	300	left	lower	right	lower	1	590	ses-1	1218
sub-17	2	69	uncrossed	different	same	800	left	lower	right	lower	1	593	ses-1	1219
sub-17	2	70	uncrossed	different	same	100	right	lower	left	lower	1	524	ses-1	1220
sub-17	2	71	uncrossed	same	same	50	left	lower	left	lower	1	1228	ses-1	1221
sub-17	2	72	uncrossed	different	different	100	left	lower	right	upper	1	542	ses-1	1222
sub-17	2	73	uncrossed	same	different	100	left	upper	left	lower	1	562	ses-1	1223
sub-17	2	74	uncrossed	same	same	300	right	lower	right	lower	1	626	ses-1	1224
sub-17	2	75	uncrossed	same	same	300	right	lower	right	lower	1	437	ses-1	1225
sub-17	2	76	uncrossed	same	different	300	left	upper	left	lower	1	501	ses-1	1226
sub-17	2	77	uncrossed	different	different	300	right	lower	left	upper	1	543	ses-1	1227
sub-17	2	78	uncrossed	different	same	50	left	lower	right	lower	1	843	ses-1	1228
sub-17	2	79	uncrossed	different	different	800	left	upper	right	lower	1	581	ses-1	1229
sub-17	2	80	uncrossed	same	same	800	right	lower	right	lower	1	708	ses-1	1230
sub-17	2	81	uncrossed	different	different	300	right	upper	left	lower	1	513	ses-1	1231
sub-17	2	82	uncrossed	same	same	50	right	lower	right	lower	1	618	ses-1	1232
sub-17	2	83	uncrossed	different	different	50	left	upper	right	lower	1	515	ses-1	1233
sub-17	2	84	uncrossed	same	different	100	right	upper	right	lower	1	518	ses-1	1234
sub-17	2	85	uncrossed	same	different	300	right	lower	right	upper	1	584	ses-1	1235
sub-17	2	86	uncrossed	different	different	300	right	lower	left	upper	1	464	ses-1	1236
sub-17	2	87	uncrossed	same	different	50	left	lower	left	upper	1	737	ses-1	1237
sub-17	2	88	uncrossed	same	different	100	right	lower	right	upper	1	553	ses-1	1238
sub-17	2	89	uncrossed	different	different	800	right	lower	left	upper	1	458	ses-1	1239
sub-17	2	90	uncrossed	different	different	50	right	upper	left	lower	1	707	ses-1	1240
sub-17	2	91	uncrossed	different	same	100	right	lower	left	lower	1	588	ses-1	1241
sub-17	2	93	uncrossed	different	different	100	left	upper	right	lower	1	597	ses-1	1242
sub-17	2	94	uncrossed	different	same	50	right	lower	left	lower	1	698	ses-1	1243
sub-17	2	95	uncrossed	same	same	50	right	lower	right	lower	1	910	ses-1	1244
sub-17	2	96	uncrossed	same	different	300	left	lower	left	upper	1	601	ses-1	1245
sub-17	2	97	uncrossed	different	different	800	right	lower	left	upper	1	522	ses-1	1246
sub-17	2	98	uncrossed	same	different	100	left	lower	left	upper	1	598	ses-1	1247
sub-17	2	99	uncrossed	same	same	300	right	lower	right	lower	1	533	ses-1	1248
sub-17	2	100	uncrossed	same	same	100	right	lower	right	lower	1	409	ses-1	1249
sub-17	2	101	uncrossed	different	different	50	left	lower	right	upper	1	477	ses-1	1250
sub-17	2	102	uncrossed	same	different	300	left	upper	left	lower	1	489	ses-1	1251
sub-17	2	103	uncrossed	same	different	50	left	upper	left	lower	1	465	ses-1	1252
sub-17	2	104	uncrossed	different	same	50	left	lower	right	lower	1	606	ses-1	1253
sub-17	2	105	uncrossed	same	different	100	left	lower	left	upper	1	517	ses-1	1254
sub-17	2	106	uncrossed	different	different	50	right	lower	left	upper	1	722	ses-1	1255
sub-17	2	107	uncrossed	same	same	50	right	lower	right	lower	1	633	ses-1	1256
