participant_id	run	trial_in_run	posture	stim_side	stim_segment	soa	tactor1side	tactor1segment	tactor2side	tactor2segment	response_correct	rt	session	trial
sub-023	1	1	crossed	same	same	50	right	lower	right	lower	0	1625	ses-01	1
sub-023	1	2	crossed	same	same	300	right	lower	right	lower	0	1119	ses-01	2
sub-023	1	3	crossed	different	same	50	right	lower	left	lower	0	680	ses-01	3
sub-023	1	4	crossed	different	different	50	right	lower	left	upper	0	896	ses-01	4
sub-023	1	5	crossed	different	different	800	right	lower	left	upper	0	1298	ses-01	5
sub-023	1	6	crossed	different	different	800	left	upper	right	lower	0	1145	ses-01	6
sub-023	1	7	crossed	same	same	100	right	lower	right	lower	0	990	ses-01	7
sub-023	1	8	crossed	same	same	800	right	lower	right	lower	0	678	ses-01	8
sub-023	1	9	crossed	different	different	100	left	lower	right	upper	1	2812	ses-01	9
sub-023	1	10	crossed	same	different	50	left	upper	left	lower	0	2608	ses-01	10
sub-023	1	11	crossed	different	same	50	right	lower	left	lower	1	2312	ses-01	11
sub-023	1	12	crossed	same	same	50	left	lower	left	lower	0	1507	ses-01	12
sub-023	1	13	crossed	different	same	800	right	lower	left	lower	0	1152	ses-01	13
sub-023	1	15	crossed	different	same	300	left	lower	right	lower	1	2521	ses-01	14
sub-023	1	16	crossed	same	different	50	right	lower	right	upper	0	1858	ses-01	15
sub-023	1	17	crossed	different	different	800	right	upper	left	lower	0	1039	ses-01	16
sub-023	1	18	crossed	different	same	50	right	lower	left	lower	0	2629	ses-01	17
sub-023	1	19	crossed	different	different	100	right	upper	left	lower	0	2364	ses-01	18
sub-023	1	20	crossed	same	different	50	right	upper	right	lower	0	1969	ses-01	19
sub-023	1	21	crossed	different	same	300	right	lower	left	lower	0	1642	ses-01	20
sub-023	1	22	crossed	different	different	100	right	lower	left	upper	0	2073	ses-01	21
sub-023	1	23	crossed	same	same	800	left	lower	left	lower	0	722	ses-01	22
sub-023	1	24	crossed	same	different	100	right	upper	right	lower	0	1058	ses-01	23
sub-023	1	25	crossed	same	different	300	right	upper	right	lower	0	2473	ses-01	24
sub-023	1	26	crossed	same	different	50	right	upper	right	lower	0	721	ses-01	25
sub-023	1	27	crossed	same	different	300	left	lower	left	upper	0	1875	ses-01	26
sub-023	1	28	crossed	same	different	800	left	lower	left	upper	0	1521	ses-01	27
sub-023	1	29	crossed	same	same	300	right	lower	right	lower	0	822	ses-01	28
sub-023	1	30	crossed	same	same	300	right	lower	right	lower	0	573	ses-01	29
sub-023	1	31	crossed	same	different	800	right	upper	right	lower	0	1057	ses-01	30
sub-023	1	32	crossed	same	different	300	right	lower	right	upper	0	758	ses-01	31
sub-023	1	33	crossed	different	same	100	right	lower	left	lower	0	781	ses-01	32
sub-023	1	34	crossed	same	same	300	right	lower	right	lower	0	728	ses-01	33
sub-023	1	35	crossed	different	different	800	right	upper	left	lower	0	943	ses-01	34
sub-023	1	36	crossed	different	different	100	left	upper	right	lower	0	1593	ses-01	35
sub-023	1	37	crossed	same	same	300	right	lower	right	lower	0	827	ses-01	36
sub-023	1	38	crossed	same	same	50	right	lower	right	lower	0	1673	ses-01	37
sub-023	1	39	crossed	same	different	800	right	upper	right	lower	0	1494	ses-01	38
sub-023	1	40	crossed	different	same	100	right	lower	left	lower	0	871	ses-01	39
sub-023	1	41	crossed	same	same	50	right	lower	right	lower	0	660	ses-01	40
sub-023	1	42	crossed	different	different	100	left	upper	right	lower	1	2233	ses-01	41
sub-023	1	43	crossed	same	different	300	left	upper	left	lower	0	1782	ses-01	42
sub-023	1	44	crossed	same	different	300	left	upper	left	lower	0	1791	ses-01	43
sub-023	1	45	crossed	different	different	300	right	upper	left	lower	0	1217	ses-01	44
sub-023	1	46	crossed	different	same	800	right	lower	left	lower	0	970	ses-01	45
sub-023	1	47	crossed	same	different	100	right	lower	right	upper	0	1708	ses-01	46
sub-023	1	48	crossed	different	same	800	right	lower	left	lower	0	1032	ses-01	47
sub-023	1	49	crossed	different	different	100	right	upper	left	lower	0	2303	ses-01	48
sub-023	1	50	crossed	different	same	50	right	lower	left	lower	0	1851	ses-01	49
sub-023	1	51	crossed	same	same	50	right	lower	right	lower	0	748	ses-01	50
sub-023	1	52	crossed	different	different	100	left	upper	right	lower	0	1687	ses-01	51
sub-023	1	53	crossed	same	same	50	right	lower	right	lower	0	919	ses-01	52
sub-023	1	54	crossed	same	same	100	left	lower	left	lower	0	2494	ses-01	53
sub-023	1	55	crossed	different	same	300	left	lower	right	lower	0	1469	ses-01	54
sub-023	1	56	crossed	different	same	50	left	lower	right	lower	0	730	ses-01	55
sub-023	1	57	crossed	same	different	100	right	lower	right	upper	0	813	ses-01	56
sub-023	1	58	crossed	same	same	800	right	lower	right	lower	0	1457	ses-01	57
sub-023	1	59	crossed	same	same	50	left	lower	left	lower	1	2899	ses-01	58
sub-023	1	60	crossed	same	same	100	left	lower	left	lower	0	2032	ses-01	59
sub-023	1	61	crossed	different	same	300	left	lower	right	lower	0	1045	ses-01	60
sub-023	1	62	crossed	same	same	800	left	lower	left	lower	0	1309	ses-01	61
sub-023	1	63	crossed	different	different	300	right	upper	left	lower	0	1142	ses-01	62
sub-023	1	64	crossed	same	same	100	left	lower	left	lower	0	1761	ses-01	63
sub-023	1	65	crossed	different	same	300	right	lower	left	lower	0	874	ses-01	64
sub-023	1	66	crossed	same	different	800	right	upper	right	lower	0	1012	ses-01	65
sub-023	1	67	crossed	same	same	100	right	lower	right	lower	0	812	ses-01	66
sub-023	1	68	crossed	different	different	50	left	lower	right	upper	0	829	ses-01	67
sub-023	1	69	crossed	different	same	100	left	lower	right	lower	0	2046	ses-01	68
sub-023	1	70	crossed	different	different	100	right	upper	left	lower	0	1201	ses-01	69
sub-023	1	72	crossed	different	different	100	left	lower	right	upper	0	1574	ses-01	70
sub-023	1	73	crossed	same	different	300	right	lower	right	upper	1	761	ses-01	71
sub-023	1	74	crossed	same	same	300	right	lower	right	lower	0	1242	ses-01	72
sub-023	1	75	crossed	different	different	50	left	upper	right	lower	0	1587	ses-01	73
sub-023	1	76	crossed	different	different	300	right	upper	left	lower	0	1003	ses-01	74
sub-023	1	77	crossed	same	different	300	right	lower	right	upper	1	1227	ses-01	75
sub-023	1	78	crossed	same	different	100	left	lower	left	upper	0	1885	ses-01	76
sub-023	1	80	crossed	same	same	800	left	lower	left	lower	0	638	ses-01	77
sub-023	1	81	crossed	same	different	100	right	lower	right	upper	0	1265	ses-01	78
sub-023	1	82	crossed	same	different	300	left	upper	left	lower	0	890	ses-01	79
sub-023	1	83	crossed	different	different	800	right	upper	left	lower	0	1148	ses-01	80
sub-023	1	84	crossed	different	different	800	left	lower	right	upper	0	646	ses-01	81
sub-023	1	85	crossed	different	different	800	left	lower	right	upper	0	638	ses-01	82
sub-023	1	86	crossed	different	same	300	right	lower	left	lower	0	2389	ses-01	83
sub-023	1	87	crossed	same	same	50	left	lower	left	lower	0	2827	ses-01	84
sub-023	1	88	crossed	different	same	800	left	lower	right	lower	0	763	ses-01	85
sub-023	1	89	crossed	different	different	300	left	lower	right	upper	0	1213	ses-01	86
sub-023	1	90	crossed	same	same	300	right	lower	right	lower	1	897	ses-01	87
sub-023	1	91	crossed	same	same	800	left	lower	left	lower	0	1655	ses-01	88
sub-023	1	92	crossed	same	same	100	right	lower	right	lower	0	700	ses-01	89
sub-023	1	93	crossed	different	different	50	right	lower	left	upper	0	1432	ses-01	90
sub-023	1	94	crossed	different	same	800	left	lower	right	lower	1	2852	ses-01	91
sub-023	1	95	crossed	different	different	100	right	lower	left	upper	0	2037	ses-01	92
sub-023	1	96	crossed	different	same	50	right	lower	left	lower	0	1364	ses-01	93
sub-023	1	97	crossed	same	same	800	left	lower	left	lower	0	771	ses-01	94
sub-023	1	98	crossed	same	different	50	left	lower	left	upper	0	881	ses-01	95
sub-023	1	99	crossed	same	different	300	right	upper	right	lower	0	894	ses-01	96
sub-023	1	100	crossed	different	same	800	right	lower	left	lower	0	1200	ses-01	97
sub-023	1	101	crossed	same	different	50	left	lower	left	upper	0	1357	ses-01	98
sub-023	1	102	crossed	different	same	100	left	lower	right	lower	0	2286	ses-01	99
sub-023	1	103	crossed	same	different	100	right	lower	right	upper	0	755	ses-01	100
sub-023	1	104	crossed	different	same	100	left	lower	right	lower	0	1941	ses-01	101
sub-023	1	105	crossed	different	same	50	right	lower	left	lower	1	1808	ses-01	102
sub-023	1	106	crossed	different	same	300	right	lower	left	lower	0	707	ses-01	103
sub-023	1	107	crossed	same	different	100	left	upper	left	lower	0	996	ses-01	104
sub-023	1	108	crossed	different	same	50	left	lower	right	lower	0	2371	ses-01	105
sub-023	1	109	crossed	same	same	300	right	lower	right	lower	0	1597	ses-01	106
sub-023	1	110	crossed	same	same	300	left	lower	left	lower	0	1145	ses-01	107
sub-023	1	111	crossed	same	same	800	left	lower	left	lower	0	815	ses-01	108
sub-023	1	112	crossed	different	same	800	left	lower	right	lower	0	596	ses-01	109
sub-023	1	113	crossed	different	different	50	left	upper	right	lower	1	2690	ses-01	110
sub-023	1	114	crossed	same	different	800	left	lower	left	upper	0	755	ses-01	111
sub-023	1	115	crossed	same	different	100	left	upper	left	lower	0	749	ses-01	112
sub-023	1	116	crossed	different	different	800	left	upper	right	lower	0	662	ses-01	113
sub-023	1	117	crossed	different	same	100	right	lower	left	lower	1	1684	ses-01	114
sub-023	1	118	crossed	same	same	300	left	lower	left	lower	0	2354	ses-01	115
sub-023	1	119	crossed	same	same	800	right	lower	right	lower	0	1796	ses-01	116
sub-023	1	120	crossed	different	same	300	right	lower	left	lower	0	825	ses-01	117
sub-023	1	121	crossed	same	same	300	left	lower	left	lower	0	955	ses-01	118
sub-023	1	122	crossed	different	same	100	right	lower	left	lower	0	1802	ses-01	119
sub-023	1	124	crossed	same	same	50	right	lower	right	lower	0	1157	ses-01	120
sub-023	1	125	crossed	same	same	800	right	lower	right	lower	0	1519	ses-01	121
sub-023	1	126	crossed	different	different	50	left	lower	right	upper	0	2207	ses-01	122
sub-023	1	127	crossed	same	same	800	right	lower	right	lower	0	1748	ses-01	123
sub-023	1	128	crossed	same	different	100	left	upper	left	lower	0	1903	ses-01	124
sub-023	1	129	crossed	different	different	100	right	lower	left	upper	0	1351	ses-01	125
sub-023	1	130	crossed	different	different	800	right	lower	left	upper	0	853	ses-01	126
sub-023	1	131	crossed	same	same	100	left	lower	left	lower	0	1272	ses-01	127
sub-023	1	132	crossed	different	different	800	left	upper	right	lower	0	1824	ses-01	128
sub-023	1	133	crossed	different	different	50	right	upper	left	lower	0	2848	ses-01	129
sub-023	1	134	crossed	same	different	50	right	upper	right	lower	0	1871	ses-01	130
sub-023	1	135	crossed	same	same	50	left	lower	left	lower	0	1802	ses-01	131
sub-023	1	136	crossed	same	different	300	right	upper	right	lower	1	1622	ses-01	132
sub-023	1	138	crossed	different	same	100	left	lower	right	lower	0	2263	ses-01	133
sub-023	1	139	crossed	different	same	800	left	lower	right	lower	0	2160	ses-01	134
sub-023	1	140	crossed	same	different	800	right	lower	right	upper	0	2403	ses-01	135
sub-023	1	141	crossed	different	different	50	left	upper	right	lower	0	2398	ses-01	136
sub-023	1	142	crossed	different	different	300	right	lower	left	upper	0	910	ses-01	137
sub-023	1	143	crossed	different	same	100	right	lower	left	lower	1	2702	ses-01	138
sub-023	1	144	crossed	different	same	50	right	lower	left	lower	0	1663	ses-01	139
sub-023	1	145	crossed	different	different	50	left	upper	right	lower	0	1958	ses-01	140
sub-023	1	146	crossed	different	different	800	right	upper	left	lower	0	2428	ses-01	141
sub-023	1	147	crossed	same	different	300	right	upper	right	lower	0	1878	ses-01	142
sub-023	1	148	crossed	same	same	100	right	lower	right	lower	0	743	ses-01	143
sub-023	1	149	crossed	same	different	300	left	upper	left	lower	0	1529	ses-01	144
sub-023	1	150	crossed	different	different	300	left	lower	right	upper	0	1967	ses-01	145
sub-023	1	151	crossed	different	different	300	left	lower	right	upper	0	774	ses-01	146
sub-023	1	152	crossed	different	same	800	left	lower	right	lower	0	609	ses-01	147
sub-023	1	153	crossed	same	same	50	left	lower	left	lower	0	1757	ses-01	148
sub-023	1	154	crossed	same	same	50	right	lower	right	lower	0	2278	ses-01	149
sub-023	1	155	crossed	different	different	300	left	upper	right	lower	1	2445	ses-01	150
sub-023	1	156	crossed	different	different	100	right	lower	left	upper	0	2872	ses-01	151
sub-023	1	157	crossed	same	different	50	left	lower	left	upper	0	1067	ses-01	152
sub-023	1	159	crossed	same	same	50	right	lower	right	lower	0	956	ses-01	153
sub-023	1	160	crossed	different	different	100	left	lower	right	upper	0	1350	ses-01	154
sub-023	1	161	crossed	different	different	300	left	upper	right	lower	0	1285	ses-01	155
sub-023	1	162	crossed	same	different	300	right	lower	right	upper	0	1004	ses-01	156
sub-023	1	163	crossed	same	same	100	left	lower	left	lower	0	2656	ses-01	157
sub-023	1	164	crossed	different	different	50	right	lower	left	upper	0	2953	ses-01	158
sub-023	1	165	crossed	different	same	100	left	lower	right	lower	0	2547	ses-01	159
sub-023	1	166	crossed	same	different	50	left	lower	left	upper	0	1259	ses-01	160
sub-023	1	167	crossed	different	same	300	left	lower	right	lower	0	1627	ses-01	161
sub-023	1	168	crossed	same	different	800	left	upper	left	lower	0	1425	ses-01	162
sub-023	1	169	crossed	same	same	100	left	lower	left	lower	0	2404	ses-01	163
sub-023	1	170	crossed	different	same	100	right	lower	left	lower	0	1738	ses-01	164
sub-023	1	171	crossed	same	same	100	right	lower	right	lower	0	2244	ses-01	165
sub-023	1	172	crossed	same	different	50	right	upper	right	lower	0	1199	ses-01	166
sub-023	1	173	crossed	same	different	50	left	upper	left	lower	0	1293	ses-01	167
sub-023	1	174	crossed	different	different	300	right	lower	left	upper	0	721	ses-01	168
sub-023	1	176	crossed	different	different	50	right	upper	left	lower	0	1977	ses-01	169
sub-023	1	177	crossed	same	different	800	right	upper	right	lower	0	2207	ses-01	170
sub-023	1	178	crossed	same	same	800	right	lower	right	lower	0	1047	ses-01	171
sub-023	1	179	crossed	same	same	50	left	lower	left	lower	1	976	ses-01	172
sub-023	1	180	crossed	same	different	100	right	upper	right	lower	0	2418	ses-01	173
sub-023	1	181	crossed	different	different	100	right	lower	left	upper	0	1887	ses-01	174
sub-023	1	183	crossed	same	different	50	left	upper	left	lower	0	980	ses-01	175
sub-023	1	184	crossed	different	different	100	left	upper	right	lower	0	1603	ses-01	176
sub-023	1	185	crossed	same	different	300	left	upper	left	lower	0	1291	ses-01	177
sub-023	1	186	crossed	different	different	800	left	upper	right	lower	0	1187	ses-01	178
sub-023	1	187	crossed	different	same	100	left	lower	right	lower	0	2412	ses-01	179
sub-023	1	188	crossed	different	same	100	right	lower	left	lower	0	1713	ses-01	180
sub-023	1	189	crossed	different	different	300	left	upper	right	lower	0	2228	ses-01	181
sub-023	1	190	crossed	same	same	100	left	lower	left	lower	0	1360	ses-01	182
sub-023	1	191	crossed	same	different	50	right	lower	right	upper	0	2395	ses-01	183
sub-023	1	193	crossed	same	different	300	left	lower	left	upper	0	1243	ses-01	184
sub-023	1	194	crossed	different	same	100	right	lower	left	lower	0	1645	ses-01	185
sub-023	1	195	crossed	different	same	800	left	lower	right	lower	0	1588	ses-01	186
sub-023	1	196	crossed	different	same	800	left	lower	right	lower	0	827	ses-01	187
sub-023	1	197	crossed	same	same	800	right	lower	right	lower	0	1185	ses-01	188
sub-023	1	198	crossed	same	different	800	left	lower	left	upper	0	1511	ses-01	189
sub-023	1	199	crossed	different	same	50	right	lower	left	lower	0	2414	ses-01	190
sub-023	1	200	crossed	different	same	50	left	lower	right	lower	0	1800	ses-01	191
sub-023	1	201	crossed	same	same	100	right	lower	right	lower	0	1198	ses-01	192
sub-023	1	202	crossed	same	different	300	right	lower	right	upper	0	818	ses-01	193
sub-023	1	203	crossed	different	same	300	right	lower	left	lower	0	1171	ses-01	194
sub-023	1	204	crossed	different	same	800	left	lower	right	lower	0	1721	ses-01	195
sub-023	1	205	crossed	different	different	50	right	lower	left	upper	1	1834	ses-01	196
sub-023	1	206	crossed	same	same	50	right	lower	right	lower	0	1551	ses-01	197
sub-023	1	207	crossed	same	same	300	left	lower	left	lower	0	1727	ses-01	198
sub-023	1	208	crossed	different	different	100	right	lower	left	upper	0	1618	ses-01	199
sub-023	1	209	crossed	different	different	300	left	upper	right	lower	1	1664	ses-01	200
sub-023	1	210	crossed	same	different	50	right	lower	right	upper	0	1122	ses-01	201
sub-023	1	212	crossed	same	different	100	right	upper	right	lower	0	1145	ses-01	202
sub-023	1	213	crossed	different	same	300	left	lower	right	lower	0	1147	ses-01	203
sub-023	1	214	crossed	different	same	300	right	lower	left	lower	0	1194	ses-01	204
sub-023	1	215	crossed	same	different	800	right	lower	right	upper	0	1756	ses-01	205
sub-023	1	216	crossed	same	different	800	left	lower	left	upper	0	937	ses-01	206
sub-023	1	217	crossed	same	different	300	right	lower	right	upper	1	1530	ses-01	207
sub-023	1	218	crossed	same	different	100	left	upper	left	lower	0	2173	ses-01	208
sub-023	1	219	crossed	different	different	300	right	lower	left	upper	0	2182	ses-01	209
sub-023	1	220	crossed	same	same	800	right	lower	right	lower	0	1885	ses-01	210
sub-023	1	221	crossed	different	different	50	left	lower	right	upper	0	2002	ses-01	211
sub-023	1	222	crossed	same	different	300	left	lower	left	upper	0	1329	ses-01	212
sub-023	1	223	crossed	same	same	100	right	lower	right	lower	1	1671	ses-01	213
sub-023	1	224	crossed	same	same	300	right	lower	right	lower	0	2102	ses-01	214
sub-023	1	225	crossed	different	same	100	left	lower	right	lower	0	2607	ses-01	215
sub-023	1	226	crossed	different	different	100	left	lower	right	upper	0	2337	ses-01	216
sub-023	1	227	crossed	different	different	800	left	upper	right	lower	0	1542	ses-01	217
sub-023	1	228	crossed	same	different	100	right	upper	right	lower	0	1748	ses-01	218
sub-023	1	229	crossed	same	same	300	left	lower	left	lower	0	2125	ses-01	219
sub-023	1	230	crossed	different	different	800	right	lower	left	upper	0	1756	ses-01	220
sub-023	1	231	crossed	same	same	300	left	lower	left	lower	0	1684	ses-01	221
sub-023	1	232	crossed	different	same	800	left	lower	right	lower	0	844	ses-01	222
sub-023	1	233	crossed	same	same	50	left	lower	left	lower	0	2097	ses-01	223
sub-023	1	234	crossed	different	same	100	right	lower	left	lower	0	2448	ses-01	224
sub-023	1	235	crossed	same	different	100	left	lower	left	upper	0	1572	ses-01	225
sub-023	1	236	crossed	same	different	50	left	upper	left	lower	0	2532	ses-01	226
sub-023	1	237	crossed	same	different	50	right	upper	right	lower	0	1631	ses-01	227
sub-023	1	238	crossed	different	same	50	right	lower	left	lower	0	1345	ses-01	228
sub-023	1	239	crossed	same	different	100	right	lower	right	upper	0	1082	ses-01	229
sub-023	1	241	crossed	different	different	800	right	upper	left	lower	0	1227	ses-01	230
sub-023	1	242	crossed	same	different	800	right	lower	right	upper	0	1978	ses-01	231
sub-023	1	243	crossed	same	same	100	right	lower	right	lower	0	1529	ses-01	232
sub-023	1	244	crossed	same	different	800	right	lower	right	upper	0	1888	ses-01	233
sub-023	1	245	crossed	different	different	800	right	lower	left	upper	0	2363	ses-01	234
sub-023	1	246	crossed	different	different	800	left	lower	right	upper	0	1568	ses-01	235
sub-023	1	247	crossed	different	same	50	right	lower	left	lower	0	2553	ses-01	236
sub-023	1	248	crossed	same	same	100	right	lower	right	lower	0	1507	ses-01	237
sub-023	1	249	crossed	same	different	800	left	upper	left	lower	0	1250	ses-01	238
sub-023	1	250	crossed	different	different	300	right	lower	left	upper	0	1739	ses-01	239
sub-023	1	251	crossed	same	same	800	left	lower	left	lower	0	767	ses-01	240
sub-023	1	252	crossed	different	same	50	left	lower	right	lower	0	2049	ses-01	241
sub-023	1	253	crossed	same	same	800	left	lower	left	lower	0	879	ses-01	242
sub-023	1	254	crossed	same	different	50	right	upper	right	lower	0	1714	ses-01	243
sub-023	1	255	crossed	different	different	100	left	upper	right	lower	0	1437	ses-01	244
sub-023	1	256	crossed	different	different	300	right	lower	left	upper	0	926	ses-01	245
sub-023	1	257	crossed	different	different	50	left	upper	right	lower	0	902	ses-01	246
sub-023	1	258	crossed	different	same	300	left	lower	right	lower	0	2196	ses-01	247
sub-023	1	259	crossed	different	same	100	left	lower	right	lower	0	1234	ses-01	248
sub-023	1	260	crossed	different	same	300	left	lower	right	lower	0	2008	ses-01	249
sub-023	1	261	crossed	same	same	50	left	lower	left	lower	0	2203	ses-01	250
sub-023	1	262	crossed	same	different	100	right	upper	right	lower	0	1237	ses-01	251
sub-023	1	263	crossed	different	same	300	left	lower	right	lower	0	983	ses-01	252
sub-023	1	264	crossed	different	different	300	left	upper	right	lower	0	1336	ses-01	253
sub-023	1	265	crossed	different	same	100	left	lower	right	lower	0	1795	ses-01	254
sub-023	1	267	crossed	different	same	50	left	lower	right	lower	0	1804	ses-01	255
sub-023	1	268	crossed	same	different	300	left	upper	left	lower	0	1020	ses-01	256
sub-023	1	269	crossed	same	different	800	right	lower	right	upper	1	875	ses-01	257
sub-023	1	270	crossed	same	same	50	right	lower	right	lower	0	1564	ses-01	258
sub-023	1	271	crossed	same	different	50	left	upper	left	lower	0	2250	ses-01	259
sub-023	1	272	crossed	same	same	800	left	lower	left	lower	0	888	ses-01	260
sub-023	1	273	crossed	same	different	800	left	upper	left	lower	0	830	ses-01	261
sub-023	1	274	crossed	different	same	300	right	lower	left	lower	0	1666	ses-01	262
sub-023	1	275	crossed	same	same	800	left	lower	left	lower	0	1645	ses-01	263
sub-023	1	276	crossed	different	different	50	right	upper	left	lower	0	1531	ses-01	264
sub-023	1	277	crossed	same	different	800	left	upper	left	lower	0	749	ses-01	265
sub-023	1	278	crossed	same	different	800	left	upper	left	lower	0	848	ses-01	266
sub-023	1	279	crossed	different	same	800	right	lower	left	lower	0	1610	ses-01	267
sub-023	1	280	crossed	same	same	100	left	lower	left	lower	0	1628	ses-01	268
sub-023	1	281	crossed	same	different	800	right	lower	right	upper	1	1996	ses-01	269
sub-023	1	282	crossed	different	different	800	left	lower	right	upper	1	2674	ses-01	270
sub-023	1	283	crossed	different	different	100	left	lower	right	upper	0	2284	ses-01	271
sub-023	1	284	crossed	same	different	800	left	lower	left	upper	0	966	ses-01	272
sub-023	1	285	crossed	different	same	800	left	lower	right	lower	0	1071	ses-01	273
sub-023	1	286	crossed	different	different	300	left	lower	right	upper	0	2611	ses-01	274
sub-023	1	287	crossed	same	different	50	right	lower	right	upper	0	1475	ses-01	275
sub-023	1	288	crossed	different	different	50	right	lower	left	upper	0	746	ses-01	276
sub-023	1	289	crossed	same	same	300	left	lower	left	lower	0	1568	ses-01	277
sub-023	1	290	crossed	same	same	300	left	lower	left	lower	0	694	ses-01	278
sub-023	1	291	crossed	same	same	300	right	lower	right	lower	1	2519	ses-01	279
sub-023	1	292	crossed	same	different	800	right	upper	right	lower	0	1405	ses-01	280
sub-023	1	293	crossed	same	different	300	right	upper	right	lower	0	936	ses-01	281
sub-023	1	294	crossed	different	different	100	left	upper	right	lower	0	1626	ses-01	282
sub-023	1	296	crossed	same	same	50	left	lower	left	lower	0	1337	ses-01	283
sub-023	1	297	crossed	different	different	50	right	upper	left	lower	0	2032	ses-01	284
sub-023	1	298	crossed	same	same	100	left	lower	left	lower	0	1220	ses-01	285
sub-023	1	299	crossed	same	different	100	left	lower	left	upper	0	1000	ses-01	286
sub-023	1	300	crossed	different	different	300	left	lower	right	upper	0	2187	ses-01	287
sub-023	1	301	crossed	same	same	800	right	lower	right	lower	0	1747	ses-01	288
sub-023	1	302	crossed	same	different	300	left	lower	left	upper	0	1409	ses-01	289
sub-023	1	303	crossed	different	same	100	right	lower	left	lower	0	1813	ses-01	290
sub-023	1	304	crossed	different	different	300	left	lower	right	upper	0	1382	ses-01	291
sub-023	1	305	crossed	different	same	50	left	lower	right	lower	0	940	ses-01	292
sub-023	1	306	crossed	same	different	50	right	lower	right	upper	0	1829	ses-01	293
sub-023	1	307	crossed	different	different	800	right	lower	left	upper	0	1839	ses-01	294
sub-023	1	308	crossed	different	same	800	right	lower	left	lower	0	1607	ses-01	295
sub-023	1	309	crossed	different	different	50	left	lower	right	upper	1	2147	ses-01	296
sub-023	1	310	crossed	same	same	800	left	lower	left	lower	0	1086	ses-01	297
sub-023	1	311	crossed	different	same	800	left	lower	right	lower	0	1253	ses-01	298
sub-023	1	312	crossed	different	different	800	left	upper	right	lower	0	2498	ses-01	299
sub-023	1	313	crossed	same	different	50	left	upper	left	lower	0	944	ses-01	300
sub-023	1	314	crossed	same	different	50	left	lower	left	upper	0	915	ses-01	301
sub-023	1	315	crossed	different	different	100	left	lower	right	upper	0	1948	ses-01	302
sub-023	1	316	crossed	different	same	300	right	lower	left	lower	0	2006	ses-01	303
sub-023	1	318	crossed	different	same	50	left	lower	right	lower	0	1469	ses-01	304
sub-023	1	319	crossed	different	different	50	left	lower	right	upper	0	2415	ses-01	305
sub-023	1	320	crossed	different	different	800	right	lower	left	upper	0	1834	ses-01	306
sub-023	1	321	crossed	different	different	300	right	upper	left	lower	0	1114	ses-01	307
sub-023	1	322	crossed	same	same	300	left	lower	left	lower	1	844	ses-01	308
sub-023	1	324	crossed	same	different	100	left	lower	left	upper	0	1809	ses-01	309
sub-023	1	325	crossed	same	same	100	right	lower	right	lower	0	1101	ses-01	310
sub-023	1	326	crossed	same	different	800	left	lower	left	upper	0	1359	ses-01	311
sub-023	1	327	crossed	different	same	100	right	lower	left	lower	0	1474	ses-01	312
sub-023	1	328	crossed	same	different	100	left	lower	left	upper	0	2840	ses-01	313
sub-023	1	329	crossed	same	same	100	left	lower	left	lower	0	754	ses-01	314
sub-023	1	330	crossed	different	same	300	right	lower	left	lower	0	949	ses-01	315
sub-023	1	331	crossed	different	same	100	left	lower	right	lower	0	1982	ses-01	316
sub-023	1	333	crossed	same	different	100	left	upper	left	lower	0	1042	ses-01	317
sub-023	1	334	crossed	same	different	100	left	upper	left	lower	0	754	ses-01	318
sub-023	1	335	crossed	different	different	800	left	lower	right	upper	0	668	ses-01	319
sub-023	1	336	crossed	different	different	50	left	upper	right	lower	1	2195	ses-01	320
sub-023	1	337	crossed	different	same	800	right	lower	left	lower	0	1513	ses-01	321
sub-023	1	338	crossed	different	different	100	right	upper	left	lower	0	2210	ses-01	322
sub-023	1	339	crossed	same	different	50	right	lower	right	upper	0	1079	ses-01	323
sub-023	1	340	crossed	different	different	50	left	lower	right	upper	0	1697	ses-01	324
sub-023	1	341	crossed	different	same	50	right	lower	left	lower	1	1836	ses-01	325
sub-023	1	342	crossed	different	same	800	right	lower	left	lower	0	1172	ses-01	326
sub-023	1	343	crossed	same	different	800	right	upper	right	lower	0	1243	ses-01	327
sub-023	1	344	crossed	different	same	50	left	lower	right	lower	1	2015	ses-01	328
sub-023	1	345	crossed	different	same	800	right	lower	left	lower	0	1232	ses-01	329
sub-023	1	346	crossed	different	same	800	right	lower	left	lower	0	1581	ses-01	330
sub-023	1	347	crossed	different	same	300	left	lower	right	lower	0	1862	ses-01	331
sub-023	1	348	crossed	different	same	300	left	lower	right	lower	0	2168	ses-01	332
sub-023	1	349	crossed	different	same	50	left	lower	right	lower	0	2799	ses-01	333
sub-023	1	350	crossed	different	different	300	right	lower	left	upper	0	1856	ses-01	334
sub-023	1	351	crossed	same	same	100	right	lower	right	lower	0	823	ses-01	335
sub-023	1	352	crossed	different	different	100	right	upper	left	lower	0	965	ses-01	336
sub-023	1	353	crossed	different	same	300	left	lower	right	lower	0	2429	ses-01	337
sub-023	1	354	crossed	same	same	300	left	lower	left	lower	0	1408	ses-01	338
sub-023	1	355	crossed	same	same	100	left	lower	left	lower	0	885	ses-01	339
sub-023	1	356	crossed	same	different	300	left	lower	left	upper	0	1520	ses-01	340
sub-023	1	357	crossed	different	same	800	left	lower	right	lower	0	2016	ses-01	341
sub-023	1	358	crossed	same	different	300	right	upper	right	lower	1	1189	ses-01	342
sub-023	1	359	crossed	different	different	300	right	upper	left	lower	0	1890	ses-01	343
sub-023	1	360	crossed	same	different	50	left	lower	left	upper	0	962	ses-01	344
sub-023	1	361	crossed	same	same	800	left	lower	left	lower	0	1603	ses-01	345
sub-023	1	362	crossed	same	different	100	right	lower	right	upper	0	1887	ses-01	346
sub-023	1	363	crossed	same	same	50	left	lower	left	lower	0	1047	ses-01	347
sub-023	1	364	crossed	same	same	300	right	lower	right	lower	0	1119	ses-01	348
sub-023	1	365	crossed	different	different	50	right	lower	left	upper	0	2287	ses-01	349
sub-023	1	366	crossed	different	same	800	right	lower	left	lower	0	822	ses-01	350
sub-023	1	367	crossed	different	different	300	left	upper	right	lower	0	1532	ses-01	351
sub-023	1	368	crossed	same	same	50	right	lower	right	lower	0	867	ses-01	352
sub-023	1	369	crossed	different	same	300	right	lower	left	lower	0	1087	ses-01	353
sub-023	1	370	crossed	different	same	50	left	lower	right	lower	0	833	ses-01	354
sub-023	1	371	crossed	same	same	300	left	lower	left	lower	0	1344	ses-01	355
sub-023	1	372	crossed	same	same	300	right	lower	right	lower	0	1173	ses-01	356
sub-023	1	373	crossed	same	same	300	left	lower	left	lower	0	1591	ses-01	357
sub-023	1	374	crossed	different	same	300	left	lower	right	lower	0	1090	ses-01	358
sub-023	1	375	crossed	same	different	800	left	upper	left	lower	0	778	ses-01	359
sub-023	1	376	crossed	different	same	800	right	lower	left	lower	0	841	ses-01	360
sub-023	1	377	crossed	different	different	300	right	upper	left	lower	0	1116	ses-01	361
sub-023	1	378	crossed	same	same	800	right	lower	right	lower	0	2488	ses-01	362
sub-023	1	379	crossed	same	same	100	right	lower	right	lower	0	746	ses-01	363
sub-023	1	380	crossed	same	different	100	right	upper	right	lower	0	628	ses-01	364
sub-023	1	381	crossed	same	same	800	right	lower	right	lower	0	2062	ses-01	365
sub-023	1	382	crossed	different	same	100	right	lower	left	lower	0	2422	ses-01	366
sub-023	1	383	crossed	same	different	300	left	lower	left	upper	0	1054	ses-01	367
sub-023	1	384	crossed	same	same	800	right	lower	right	lower	0	1315	ses-01	368
sub-023	1	385	crossed	different	same	50	left	lower	right	lower	0	2381	ses-01	369
sub-023	1	386	crossed	same	different	100	left	lower	left	upper	0	2097	ses-01	370
sub-023	1	387	crossed	different	same	100	left	lower	right	lower	0	1913	ses-01	371
sub-023	1	388	crossed	different	different	50	right	upper	left	lower	0	2069	ses-01	372
sub-023	1	389	crossed	different	different	100	right	upper	left	lower	0	818	ses-01	373
sub-023	1	390	crossed	different	different	800	right	upper	left	lower	0	1177	ses-01	374
sub-023	1	392	crossed	different	same	50	left	lower	right	lower	0	2875	ses-01	375
sub-023	1	393	crossed	same	same	100	left	lower	left	lower	0	2369	ses-01	376
sub-023	1	394	crossed	same	same	50	left	lower	left	lower	0	1257	ses-01	377
sub-023	1	395	crossed	different	different	50	right	upper	left	lower	0	2637	ses-01	378
sub-023	1	396	crossed	different	same	300	right	lower	left	lower	0	1766	ses-01	379
sub-023	1	397	crossed	same	same	50	right	lower	right	lower	0	2953	ses-01	380
sub-023	1	398	crossed	different	same	50	right	lower	left	lower	0	1137	ses-01	381
sub-023	1	399	crossed	different	different	800	left	lower	right	upper	0	716	ses-01	382
sub-023	1	400	crossed	different	same	100	left	lower	right	lower	0	1386	ses-01	383
sub-023	1	401	crossed	same	same	50	left	lower	left	lower	0	1493	ses-01	384
sub-023	2	1	crossed	different	different	300	left	upper	right	lower	0	1996	ses-01	385
sub-023	2	2	crossed	same	different	50	right	lower	right	upper	0	1182	ses-01	386
sub-023	2	3	crossed	same	different	300	right	lower	right	upper	0	590	ses-01	387
sub-023	2	4	crossed	different	same	50	right	lower	left	lower	0	701	ses-01	388
sub-023	2	5	crossed	different	same	100	left	lower	right	lower	0	1493	ses-01	389
sub-023	2	6	crossed	different	different	50	left	upper	right	lower	0	681	ses-01	390
sub-023	2	7	crossed	same	different	300	left	upper	left	lower	0	1223	ses-01	391
sub-023	2	8	crossed	same	same	800	left	lower	left	lower	0	734	ses-01	392
sub-023	2	9	crossed	different	same	800	left	lower	right	lower	0	823	ses-01	393
sub-023	2	10	crossed	different	same	100	left	lower	right	lower	0	988	ses-01	394
sub-023	2	11	crossed	different	different	300	left	lower	right	upper	0	620	ses-01	395
sub-023	2	12	crossed	same	same	300	left	lower	left	lower	0	825	ses-01	396
sub-023	2	13	crossed	different	different	300	left	lower	right	upper	0	823	ses-01	397
sub-023	2	14	crossed	same	same	300	right	lower	right	lower	0	2173	ses-01	398
sub-023	2	15	crossed	same	different	800	left	upper	left	lower	1	2244	ses-01	399
sub-023	2	16	crossed	different	different	300	left	lower	right	upper	0	723	ses-01	400
sub-023	2	17	crossed	same	same	100	left	lower	left	lower	1	2905	ses-01	401
sub-023	2	18	crossed	different	same	100	right	lower	left	lower	0	1831	ses-01	402
sub-023	2	19	crossed	different	same	800	right	lower	left	lower	0	998	ses-01	403
sub-023	2	20	crossed	different	same	300	right	lower	left	lower	0	2116	ses-01	404
sub-023	2	21	crossed	different	different	300	left	upper	right	lower	0	2612	ses-01	405
sub-023	2	22	crossed	different	different	50	right	lower	left	upper	0	2795	ses-01	406
sub-023	2	23	crossed	same	different	300	right	lower	right	upper	0	838	ses-01	407
sub-023	2	24	crossed	different	same	100	right	lower	left	lower	1	2261	ses-01	408
sub-023	2	26	crossed	different	different	100	left	upper	right	lower	0	862	ses-01	409
sub-023	2	27	crossed	different	same	300	right	lower	left	lower	0	931	ses-01	410
sub-023	2	28	crossed	same	same	100	left	lower	left	lower	0	1214	ses-01	411
sub-023	2	29	crossed	different	same	300	left	lower	right	lower	0	2369	ses-01	412
sub-023	2	30	crossed	same	same	50	left	lower	left	lower	0	1245	ses-01	413
sub-023	2	31	crossed	different	different	300	left	upper	right	lower	0	2354	ses-01	414
sub-023	2	32	crossed	different	different	100	left	upper	right	lower	0	1949	ses-01	415
sub-023	2	34	crossed	same	same	50	left	lower	left	lower	0	1385	ses-01	416
sub-023	2	35	crossed	same	different	100	left	lower	left	upper	0	1025	ses-01	417
sub-023	2	36	crossed	same	different	100	left	upper	left	lower	0	592	ses-01	418
sub-023	2	37	crossed	same	same	100	left	lower	left	lower	0	534	ses-01	419
sub-023	2	38	crossed	different	same	800	right	lower	left	lower	0	2681	ses-01	420
sub-023	2	39	crossed	same	different	300	left	upper	left	lower	0	799	ses-01	421
sub-023	2	40	crossed	same	different	100	left	upper	left	lower	0	673	ses-01	422
sub-023	2	41	crossed	different	same	50	right	lower	left	lower	0	1731	ses-01	423
sub-023	2	42	crossed	same	same	100	right	lower	right	lower	0	1215	ses-01	424
sub-023	2	43	crossed	different	different	50	left	upper	right	lower	0	2375	ses-01	425
sub-023	2	44	crossed	different	different	50	left	lower	right	upper	1	1505	ses-01	426
sub-023	2	45	crossed	different	different	300	right	upper	left	lower	0	2443	ses-01	427
sub-023	2	46	crossed	same	same	300	right	lower	right	lower	0	1257	ses-01	428
sub-023	2	47	crossed	same	different	50	left	upper	left	lower	0	1549	ses-01	429
sub-023	2	48	crossed	different	same	800	left	lower	right	lower	0	1592	ses-01	430
sub-023	2	49	crossed	same	same	300	right	lower	right	lower	0	760	ses-01	431
sub-023	2	50	crossed	different	different	50	right	upper	left	lower	1	888	ses-01	432
sub-023	2	51	crossed	different	different	100	left	lower	right	upper	0	1495	ses-01	433
sub-023	2	52	crossed	same	same	800	right	lower	right	lower	0	1801	ses-01	434
sub-023	2	53	crossed	different	different	50	right	upper	left	lower	0	1878	ses-01	435
sub-023	2	54	crossed	same	different	300	right	upper	right	lower	0	713	ses-01	436
sub-023	2	55	crossed	different	same	100	right	lower	left	lower	0	2015	ses-01	437
sub-023	2	56	crossed	different	different	50	left	upper	right	lower	0	1656	ses-01	438
sub-023	2	57	crossed	different	same	300	left	lower	right	lower	0	1200	ses-01	439
sub-023	2	58	crossed	different	different	300	left	upper	right	lower	0	1475	ses-01	440
sub-023	2	59	crossed	same	different	800	left	upper	left	lower	0	1031	ses-01	441
sub-023	2	60	crossed	different	same	50	left	lower	right	lower	1	1975	ses-01	442
sub-023	2	62	crossed	same	same	800	right	lower	right	lower	0	1259	ses-01	443
sub-023	2	63	crossed	same	different	100	right	lower	right	upper	0	799	ses-01	444
sub-023	2	64	crossed	different	same	800	left	lower	right	lower	0	1558	ses-01	445
sub-023	2	65	crossed	same	same	300	left	lower	left	lower	0	831	ses-01	446
sub-023	2	66	crossed	same	same	800	left	lower	left	lower	0	673	ses-01	447
sub-023	2	67	crossed	different	different	800	right	lower	left	upper	0	1524	ses-01	448
sub-023	2	68	crossed	same	same	50	right	lower	right	lower	0	974	ses-01	449
sub-023	2	69	crossed	different	different	100	right	upper	left	lower	0	1934	ses-01	450
sub-023	2	70	crossed	same	different	100	left	upper	left	lower	0	819	ses-01	451
sub-023	2	71	crossed	different	same	100	right	lower	left	lower	0	1192	ses-01	452
sub-023	2	72	crossed	different	different	50	left	upper	right	lower	0	1877	ses-01	453
sub-023	2	73	crossed	different	different	300	right	upper	left	lower	0	1337	ses-01	454
sub-023	2	74	crossed	different	same	50	left	lower	right	lower	0	1582	ses-01	455
sub-023	2	76	crossed	different	same	800	left	lower	right	lower	1	1664	ses-01	456
sub-023	2	77	crossed	same	different	800	right	upper	right	lower	0	1291	ses-01	457
sub-023	2	78	crossed	different	different	300	right	upper	left	lower	0	1205	ses-01	458
sub-023	2	79	crossed	different	different	300	right	lower	left	upper	1	2659	ses-01	459
sub-023	2	80	crossed	same	same	300	left	lower	left	lower	0	945	ses-01	460
sub-023	2	81	crossed	same	different	300	right	upper	right	lower	0	1221	ses-01	461
sub-023	2	82	crossed	different	same	50	left	lower	right	lower	0	2646	ses-01	462
sub-023	2	83	crossed	same	same	800	right	lower	right	lower	0	1443	ses-01	463
sub-023	2	84	crossed	same	different	300	left	lower	left	upper	0	1697	ses-01	464
sub-023	2	85	crossed	different	different	100	left	upper	right	lower	0	1752	ses-01	465
sub-023	2	86	crossed	different	same	50	right	lower	left	lower	0	2099	ses-01	466
sub-023	2	87	crossed	same	same	50	right	lower	right	lower	0	1574	ses-01	467
sub-023	2	88	crossed	same	same	300	right	lower	right	lower	0	790	ses-01	468
sub-023	2	89	crossed	different	same	50	left	lower	right	lower	0	2105	ses-01	469
sub-023	2	90	crossed	same	different	100	right	upper	right	lower	0	786	ses-01	470
sub-023	2	91	crossed	same	different	100	left	upper	left	lower	0	1943	ses-01	471
sub-023	2	92	crossed	different	different	50	left	lower	right	upper	0	2879	ses-01	472
sub-023	2	93	crossed	same	same	300	right	lower	right	lower	0	1128	ses-01	473
sub-023	2	94	crossed	different	same	50	right	lower	left	lower	1	2375	ses-01	474
sub-023	2	95	crossed	different	same	100	left	lower	right	lower	0	2384	ses-01	475
sub-023	2	96	crossed	different	different	800	right	upper	left	lower	0	968	ses-01	476
sub-023	2	98	crossed	different	same	800	right	lower	left	lower	0	1280	ses-01	477
sub-023	2	99	crossed	different	same	300	left	lower	right	lower	1	778	ses-01	478
sub-023	2	100	crossed	different	same	50	left	lower	right	lower	0	1831	ses-01	479
sub-023	2	101	crossed	same	different	50	right	lower	right	upper	0	836	ses-01	480
sub-023	2	102	crossed	different	different	50	left	lower	right	upper	0	2035	ses-01	481
sub-023	2	103	crossed	same	same	300	left	lower	left	lower	0	1795	ses-01	482
sub-023	2	104	crossed	different	same	50	right	lower	left	lower	0	1873	ses-01	483
sub-023	2	105	crossed	different	same	800	left	lower	right	lower	0	761	ses-01	484
sub-023	2	106	crossed	different	different	300	right	upper	left	lower	0	753	ses-01	485
sub-023	2	107	crossed	same	same	300	left	lower	left	lower	0	1075	ses-01	486
sub-023	2	108	crossed	different	same	800	right	lower	left	lower	0	2295	ses-01	487
sub-023	2	109	crossed	different	different	100	left	lower	right	upper	0	776	ses-01	488
sub-023	2	110	crossed	same	same	50	right	lower	right	lower	1	1703	ses-01	489
sub-023	2	111	crossed	same	same	800	left	lower	left	lower	0	992	ses-01	490
sub-023	2	113	crossed	different	same	300	right	lower	left	lower	1	940	ses-01	491
sub-023	2	114	crossed	same	same	100	right	lower	right	lower	1	1119	ses-01	492
sub-023	2	115	crossed	different	different	800	right	lower	left	upper	0	776	ses-01	493
sub-023	2	116	crossed	different	same	50	left	lower	right	lower	0	2365	ses-01	494
sub-023	2	117	crossed	same	same	100	right	lower	right	lower	1	2394	ses-01	495
sub-023	2	118	crossed	same	different	800	right	lower	right	upper	1	921	ses-01	496
sub-023	2	119	crossed	same	same	50	left	lower	left	lower	0	1840	ses-01	497
sub-023	2	120	crossed	same	same	100	left	lower	left	lower	0	868	ses-01	498
sub-023	2	121	crossed	same	different	50	right	lower	right	upper	0	1110	ses-01	499
sub-023	2	122	crossed	same	different	50	left	upper	left	lower	0	734	ses-01	500
sub-023	2	123	crossed	different	different	800	left	upper	right	lower	0	1957	ses-01	501
sub-023	2	124	crossed	same	same	100	right	lower	right	lower	0	1015	ses-01	502
sub-023	2	125	crossed	different	different	800	right	upper	left	lower	0	826	ses-01	503
sub-023	2	126	crossed	different	same	100	left	lower	right	lower	0	2705	ses-01	504
sub-023	2	127	crossed	same	different	50	left	lower	left	upper	0	1098	ses-01	505
sub-023	2	128	crossed	same	same	50	left	lower	left	lower	1	2625	ses-01	506
sub-023	2	129	crossed	same	different	50	left	lower	left	upper	0	1333	ses-01	507
sub-023	2	130	crossed	different	same	50	left	lower	right	lower	0	1964	ses-01	508
sub-023	2	131	crossed	same	different	300	right	lower	right	upper	1	778	ses-01	509
sub-023	2	133	crossed	same	different	100	right	upper	right	lower	0	931	ses-01	510
sub-023	2	134	crossed	same	different	300	right	upper	right	lower	0	734	ses-01	511
sub-023	2	135	crossed	same	different	300	left	lower	left	upper	1	955	ses-01	512
sub-023	2	136	crossed	different	different	100	left	upper	right	lower	0	1354	ses-01	513
sub-023	2	137	crossed	same	same	800	right	lower	right	lower	0	837	ses-01	514
sub-023	2	138	crossed	same	different	100	right	lower	right	upper	0	775	ses-01	515
sub-023	2	139	crossed	different	different	50	right	upper	left	lower	0	1252	ses-01	516
sub-023	2	140	crossed	same	same	300	left	lower	left	lower	1	1368	ses-01	517
sub-023	2	141	crossed	same	same	100	left	lower	left	lower	0	1267	ses-01	518
sub-023	2	142	crossed	same	different	50	right	upper	right	lower	1	1118	ses-01	519
sub-023	2	143	crossed	different	same	800	left	lower	right	lower	0	1277	ses-01	520
sub-023	2	144	crossed	different	different	100	right	upper	left	lower	0	873	ses-01	521
sub-023	2	145	crossed	different	same	800	left	lower	right	lower	0	1712	ses-01	522
sub-023	2	146	crossed	same	same	300	left	lower	left	lower	0	1303	ses-01	523
sub-023	2	147	crossed	same	different	800	right	upper	right	lower	0	1422	ses-01	524
sub-023	2	148	crossed	different	same	300	right	lower	left	lower	0	1056	ses-01	525
sub-023	2	149	crossed	same	same	50	right	lower	right	lower	0	759	ses-01	526
sub-023	2	150	crossed	different	same	800	right	lower	left	lower	0	789	ses-01	527
sub-023	2	151	crossed	different	different	800	left	upper	right	lower	0	768	ses-01	528
sub-023	2	152	crossed	different	same	300	left	lower	right	lower	0	683	ses-01	529
sub-023	2	153	crossed	different	different	300	right	lower	left	upper	0	922	ses-01	530
sub-023	2	154	crossed	same	different	300	right	lower	right	upper	0	1105	ses-01	531
sub-023	2	155	crossed	same	different	300	right	upper	right	lower	0	2460	ses-01	532
sub-023	2	156	crossed	different	different	300	left	upper	right	lower	0	1255	ses-01	533
sub-023	2	157	crossed	different	same	300	left	lower	right	lower	0	2481	ses-01	534
sub-023	2	158	crossed	different	same	300	right	lower	left	lower	0	1663	ses-01	535
sub-023	2	159	crossed	different	same	100	right	lower	left	lower	0	1979	ses-01	536
sub-023	2	160	crossed	same	different	100	right	upper	right	lower	1	1018	ses-01	537
sub-023	2	161	crossed	different	different	100	right	upper	left	lower	0	2018	ses-01	538
sub-023	2	162	crossed	different	different	300	left	lower	right	upper	0	1431	ses-01	539
sub-023	2	163	crossed	different	different	800	left	upper	right	lower	1	1267	ses-01	540
sub-023	2	164	crossed	different	different	800	left	lower	right	upper	0	1304	ses-01	541
sub-023	2	165	crossed	different	different	300	right	lower	left	upper	0	2856	ses-01	542
sub-023	2	167	crossed	different	same	50	left	lower	right	lower	0	1426	ses-01	543
sub-023	2	168	crossed	same	same	100	left	lower	left	lower	0	760	ses-01	544
sub-023	2	169	crossed	same	different	100	right	lower	right	upper	1	2847	ses-01	545
sub-023	2	170	crossed	same	same	300	right	lower	right	lower	0	1731	ses-01	546
sub-023	2	171	crossed	same	different	800	left	lower	left	upper	0	693	ses-01	547
sub-023	2	172	crossed	different	different	800	left	lower	right	upper	0	642	ses-01	548
sub-023	2	173	crossed	same	same	100	left	lower	left	lower	1	990	ses-01	549
sub-023	2	174	crossed	same	same	800	left	lower	left	lower	1	658	ses-01	550
sub-023	2	175	crossed	same	different	100	left	lower	left	upper	0	567	ses-01	551
sub-023	2	176	crossed	different	same	100	left	lower	right	lower	0	874	ses-01	552
sub-023	2	177	crossed	same	same	100	left	lower	left	lower	0	687	ses-01	553
sub-023	2	178	crossed	same	different	800	left	lower	left	upper	0	751	ses-01	554
sub-023	2	179	crossed	same	same	50	left	lower	left	lower	0	1343	ses-01	555
sub-023	2	180	crossed	same	different	300	left	lower	left	upper	0	919	ses-01	556
sub-023	2	181	crossed	different	different	800	right	upper	left	lower	0	1171	ses-01	557
sub-023	2	182	crossed	different	same	300	left	lower	right	lower	1	2466	ses-01	558
sub-023	2	183	crossed	same	different	800	left	lower	left	upper	0	920	ses-01	559
sub-023	2	184	crossed	same	same	50	right	lower	right	lower	0	1691	ses-01	560
sub-023	2	185	crossed	same	different	50	right	upper	right	lower	0	686	ses-01	561
sub-023	2	186	crossed	same	different	300	right	lower	right	upper	0	608	ses-01	562
sub-023	2	187	crossed	different	same	300	right	lower	left	lower	0	954	ses-01	563
sub-023	2	188	crossed	different	same	100	left	lower	right	lower	0	2179	ses-01	564
sub-023	2	189	crossed	different	same	800	left	lower	right	lower	0	928	ses-01	565
sub-023	2	190	crossed	different	different	100	right	upper	left	lower	1	1688	ses-01	566
sub-023	2	191	crossed	same	different	100	right	lower	right	upper	0	720	ses-01	567
sub-023	2	192	crossed	same	different	100	right	lower	right	upper	0	1219	ses-01	568
sub-023	2	194	crossed	same	same	100	right	lower	right	lower	0	853	ses-01	569
sub-023	2	195	crossed	different	same	50	left	lower	right	lower	0	1656	ses-01	570
sub-023	2	196	crossed	same	different	50	left	lower	left	upper	0	1074	ses-01	571
sub-023	2	197	crossed	different	different	50	left	upper	right	lower	0	1663	ses-01	572
sub-023	2	198	crossed	same	different	100	right	upper	right	lower	0	1730	ses-01	573
sub-023	2	199	crossed	same	same	300	left	lower	left	lower	0	1582	ses-01	574
sub-023	2	200	crossed	different	same	300	right	lower	left	lower	0	1234	ses-01	575
sub-023	2	201	crossed	same	different	50	left	upper	left	lower	0	1093	ses-01	576
sub-023	2	202	crossed	different	different	50	left	lower	right	upper	0	1762	ses-01	577
sub-023	2	203	crossed	different	different	100	left	lower	right	upper	0	1544	ses-01	578
sub-023	2	204	crossed	same	same	800	left	lower	left	lower	0	816	ses-01	579
sub-023	2	205	crossed	same	different	300	left	upper	left	lower	1	872	ses-01	580
sub-023	2	206	crossed	same	different	800	right	upper	right	lower	0	1089	ses-01	581
sub-023	2	207	crossed	different	different	800	right	upper	left	lower	0	1537	ses-01	582
sub-023	2	208	crossed	different	different	800	left	lower	right	upper	0	653	ses-01	583
sub-023	2	209	crossed	different	same	100	right	lower	left	lower	1	2390	ses-01	584
sub-023	2	210	crossed	same	same	50	right	lower	right	lower	0	1891	ses-01	585
sub-023	2	211	crossed	same	different	800	left	upper	left	lower	0	2455	ses-01	586
sub-023	2	212	crossed	same	same	50	right	lower	right	lower	0	1313	ses-01	587
sub-023	2	213	crossed	different	different	800	left	upper	right	lower	0	1832	ses-01	588
sub-023	2	214	crossed	same	different	100	left	lower	left	upper	0	714	ses-01	589
sub-023	2	215	crossed	same	same	800	right	lower	right	lower	0	977	ses-01	590
sub-023	2	216	crossed	same	same	50	left	lower	left	lower	1	1330	ses-01	591
sub-023	2	217	crossed	different	different	100	right	lower	left	upper	1	2354	ses-01	592
sub-023	2	218	crossed	same	same	800	right	lower	right	lower	0	1925	ses-01	593
sub-023	2	219	crossed	different	same	100	right	lower	left	lower	0	900	ses-01	594
sub-023	2	220	crossed	same	same	50	left	lower	left	lower	1	1440	ses-01	595
sub-023	2	221	crossed	different	same	300	left	lower	right	lower	0	1275	ses-01	596
sub-023	2	222	crossed	different	different	100	left	lower	right	upper	0	1991	ses-01	597
sub-023	2	223	crossed	different	same	100	right	lower	left	lower	0	1720	ses-01	598
sub-023	2	224	crossed	different	different	50	left	upper	right	lower	0	2065	ses-01	599
sub-023	2	226	crossed	same	different	50	right	upper	right	lower	0	952	ses-01	600
sub-023	2	227	crossed	different	same	300	left	lower	right	lower	0	1521	ses-01	601
sub-023	2	228	crossed	same	same	300	left	lower	left	lower	0	952	ses-01	602
sub-023	2	229	crossed	same	different	300	right	lower	right	upper	0	846	ses-01	603
sub-023	2	230	crossed	same	same	300	right	lower	right	lower	1	2370	ses-01	604
sub-023	2	231	crossed	same	different	50	right	upper	right	lower	0	981	ses-01	605
sub-023	2	232	crossed	same	same	300	left	lower	left	lower	0	1254	ses-01	606
sub-023	2	233	crossed	different	different	100	right	lower	left	upper	0	1868	ses-01	607
sub-023	2	234	crossed	same	different	50	right	lower	right	upper	0	740	ses-01	608
sub-023	2	235	crossed	same	same	100	right	lower	right	lower	0	672	ses-01	609
sub-023	2	236	crossed	same	same	800	right	lower	right	lower	0	564	ses-01	610
sub-023	2	237	crossed	different	same	50	right	lower	left	lower	0	1231	ses-01	611
sub-023	2	238	crossed	same	different	800	left	upper	left	lower	0	721	ses-01	612
sub-023	2	239	crossed	same	different	800	right	lower	right	upper	0	1524	ses-01	613
sub-023	2	240	crossed	same	different	100	right	lower	right	upper	0	625	ses-01	614
sub-023	2	242	crossed	different	same	50	right	lower	left	lower	0	764	ses-01	615
sub-023	2	243	crossed	same	different	300	left	lower	left	upper	0	806	ses-01	616
sub-023	2	244	crossed	same	different	300	right	upper	right	lower	0	690	ses-01	617
sub-023	2	245	crossed	different	same	800	right	lower	left	lower	0	568	ses-01	618
sub-023	2	246	crossed	same	different	800	left	lower	left	upper	0	1424	ses-01	619
sub-023	2	247	crossed	same	same	800	right	lower	right	lower	0	1225	ses-01	620
sub-023	2	248	crossed	different	different	50	right	lower	left	upper	0	1578	ses-01	621
sub-023	2	249	crossed	different	different	100	left	lower	right	upper	1	1027	ses-01	622
sub-023	2	250	crossed	same	different	800	left	upper	left	lower	0	758	ses-01	623
sub-023	2	251	crossed	different	different	300	right	lower	left	upper	0	1523	ses-01	624
sub-023	2	252	crossed	same	different	50	left	lower	left	upper	1	1231	ses-01	625
sub-023	2	253	crossed	same	same	300	right	lower	right	lower	0	1247	ses-01	626
sub-023	2	254	crossed	same	same	800	right	lower	right	lower	1	2585	ses-01	627
sub-023	2	255	crossed	different	different	800	right	lower	left	upper	0	1682	ses-01	628
sub-023	2	256	crossed	same	same	800	right	lower	right	lower	0	967	ses-01	629
sub-023	2	257	crossed	different	same	50	left	lower	right	lower	0	1514	ses-01	630
sub-023	2	258	crossed	different	different	100	right	lower	left	upper	0	686	ses-01	631
sub-023	2	259	crossed	same	same	100	left	lower	left	lower	0	1623	ses-01	632
sub-023	2	260	crossed	same	same	300	left	lower	left	lower	0	1539	ses-01	633
sub-023	2	261	crossed	different	same	800	right	lower	left	lower	0	1482	ses-01	634
sub-023	2	262	crossed	same	same	800	right	lower	right	lower	0	1118	ses-01	635
sub-023	2	263	crossed	same	same	50	right	lower	right	lower	0	817	ses-01	636
sub-023	2	264	crossed	different	same	800	left	lower	right	lower	0	857	ses-01	637
sub-023	2	265	crossed	different	same	50	right	lower	left	lower	0	1243	ses-01	638
sub-023	2	266	crossed	same	different	800	right	lower	right	upper	0	1090	ses-01	639
sub-023	2	267	crossed	different	different	800	left	lower	right	upper	0	1630	ses-01	640
sub-023	2	268	crossed	different	same	50	right	lower	left	lower	1	2212	ses-01	641
sub-023	2	269	crossed	same	different	300	left	upper	left	lower	0	1959	ses-01	642
sub-023	2	270	crossed	same	different	100	left	lower	left	upper	1	813	ses-01	643
sub-023	2	271	crossed	same	different	800	right	lower	right	upper	0	793	ses-01	644
sub-023	2	272	crossed	same	different	800	left	upper	left	lower	0	781	ses-01	645
sub-023	2	273	crossed	same	different	800	right	lower	right	upper	0	933	ses-01	646
sub-023	2	274	crossed	same	different	800	right	upper	right	lower	0	607	ses-01	647
sub-023	2	275	crossed	different	different	100	left	lower	right	upper	1	1230	ses-01	648
sub-023	2	276	crossed	same	different	50	right	lower	right	upper	0	1380	ses-01	649
sub-023	2	277	crossed	same	same	800	left	lower	left	lower	0	887	ses-01	650
sub-023	2	278	crossed	different	different	300	right	lower	left	upper	0	1501	ses-01	651
sub-023	2	279	crossed	different	same	300	left	lower	right	lower	1	2632	ses-01	652
sub-023	2	280	crossed	same	different	300	left	lower	left	upper	0	1488	ses-01	653
sub-023	2	281	crossed	same	same	100	right	lower	right	lower	0	975	ses-01	654
sub-023	2	282	crossed	same	different	300	left	upper	left	lower	0	2132	ses-01	655
sub-023	2	283	crossed	different	different	800	left	lower	right	upper	0	1855	ses-01	656
sub-023	2	285	crossed	same	different	50	left	upper	left	lower	0	2168	ses-01	657
sub-023	2	286	crossed	different	same	100	right	lower	left	lower	0	2158	ses-01	658
sub-023	2	287	crossed	different	same	800	right	lower	left	lower	0	1182	ses-01	659
sub-023	2	288	crossed	different	same	100	right	lower	left	lower	0	1914	ses-01	660
sub-023	2	289	crossed	same	same	800	left	lower	left	lower	1	1618	ses-01	661
sub-023	2	290	crossed	same	different	300	right	upper	right	lower	0	1903	ses-01	662
sub-023	2	291	crossed	same	same	100	right	lower	right	lower	0	889	ses-01	663
sub-023	2	292	crossed	same	different	300	left	upper	left	lower	0	1402	ses-01	664
sub-023	2	293	crossed	different	different	50	right	lower	left	upper	0	1993	ses-01	665
sub-023	2	294	crossed	same	same	100	right	lower	right	lower	0	1119	ses-01	666
sub-023	2	295	crossed	same	different	50	left	lower	left	upper	1	1374	ses-01	667
sub-023	2	296	crossed	different	different	50	right	lower	left	upper	0	2223	ses-01	668
sub-023	2	297	crossed	same	different	800	right	lower	right	upper	0	851	ses-01	669
sub-023	2	299	crossed	different	different	300	left	lower	right	upper	0	2425	ses-01	670
sub-023	2	300	crossed	same	different	100	right	upper	right	lower	0	1190	ses-01	671
sub-023	2	301	crossed	same	same	800	left	lower	left	lower	1	1095	ses-01	672
sub-023	2	302	crossed	same	different	50	right	upper	right	lower	0	846	ses-01	673
sub-023	2	303	crossed	different	same	800	left	lower	right	lower	0	1482	ses-01	674
sub-023	2	304	crossed	same	same	300	right	lower	right	lower	0	1987	ses-01	675
sub-023	2	305	crossed	different	same	800	right	lower	left	lower	0	602	ses-01	676
sub-023	2	306	crossed	same	same	800	right	lower	right	lower	0	937	ses-01	677
sub-023	2	307	crossed	different	same	50	left	lower	right	lower	0	915	ses-01	678
sub-023	2	308	crossed	same	different	800	right	upper	right	lower	0	830	ses-01	679
sub-023	2	309	crossed	same	different	50	left	upper	left	lower	0	1054	ses-01	680
sub-023	2	310	crossed	different	different	300	right	lower	left	upper	0	1256	ses-01	681
sub-023	2	311	crossed	different	different	800	right	lower	left	upper	0	702	ses-01	682
sub-023	2	312	crossed	different	different	50	left	lower	right	upper	0	1463	ses-01	683
sub-023	2	313	crossed	different	same	100	right	lower	left	lower	0	1792	ses-01	684
sub-023	2	314	crossed	different	same	800	left	lower	right	lower	0	671	ses-01	685
sub-023	2	315	crossed	same	same	100	left	lower	left	lower	0	933	ses-01	686
sub-023	2	316	crossed	same	same	300	right	lower	right	lower	1	1507	ses-01	687
sub-023	2	317	crossed	different	same	800	right	lower	left	lower	0	862	ses-01	688
sub-023	2	318	crossed	different	same	800	right	lower	left	lower	0	792	ses-01	689
sub-023	2	319	crossed	different	different	100	right	lower	left	upper	0	1607	ses-01	690
sub-023	2	320	crossed	same	same	100	left	lower	left	lower	1	1006	ses-01	691
sub-023	2	321	crossed	same	different	800	left	lower	left	upper	1	568	ses-01	692
sub-023	2	322	crossed	different	same	100	left	lower	right	lower	0	2005	ses-01	693
sub-023	2	323	crossed	different	different	50	right	upper	left	lower	0	1033	ses-01	694
sub-023	2	324	crossed	different	different	800	right	upper	left	lower	0	725	ses-01	695
sub-023	2	325	crossed	same	different	100	left	upper	left	lower	0	1568	ses-01	696
sub-023	2	326	crossed	different	different	300	left	lower	right	upper	0	797	ses-01	697
sub-023	2	327	crossed	different	same	100	right	lower	left	lower	0	1687	ses-01	698
sub-023	2	328	crossed	different	same	300	left	lower	right	lower	0	604	ses-01	699
sub-023	2	329	crossed	different	same	300	left	lower	right	lower	1	1928	ses-01	700
sub-023	2	330	crossed	different	different	800	left	upper	right	lower	0	1022	ses-01	701
sub-023	2	331	crossed	same	different	100	left	lower	left	upper	0	1108	ses-01	702
sub-023	2	332	crossed	same	different	50	right	upper	right	lower	0	902	ses-01	703
sub-023	2	333	crossed	different	different	100	left	upper	right	lower	0	2320	ses-01	704
sub-023	2	334	crossed	different	different	100	right	upper	left	lower	0	870	ses-01	705
sub-023	2	335	crossed	different	same	800	right	lower	left	lower	1	900	ses-01	706
sub-023	2	336	crossed	same	same	50	left	lower	left	lower	0	639	ses-01	707
sub-023	2	338	crossed	different	same	50	right	lower	left	lower	0	1567	ses-01	708
sub-023	2	339	crossed	different	same	50	right	lower	left	lower	1	800	ses-01	709
sub-023	2	340	crossed	different	different	50	left	lower	right	upper	0	768	ses-01	710
sub-023	2	341	crossed	different	same	100	left	lower	right	lower	1	1688	ses-01	711
sub-023	2	342	crossed	different	different	50	right	lower	left	upper	1	639	ses-01	712
sub-023	2	343	crossed	different	same	50	left	lower	right	lower	1	529	ses-01	713
sub-023	2	344	crossed	same	same	100	right	lower	right	lower	0	1270	ses-01	714
sub-023	2	345	crossed	same	different	50	left	lower	left	upper	1	922	ses-01	715
sub-023	2	346	crossed	different	same	300	right	lower	left	lower	0	2021	ses-01	716
sub-023	2	347	crossed	same	same	50	right	lower	right	lower	0	761	ses-01	717
sub-023	2	348	crossed	same	same	50	right	lower	right	lower	0	553	ses-01	718
sub-023	2	349	crossed	same	same	800	left	lower	left	lower	0	1744	ses-01	719
sub-023	2	350	crossed	same	same	50	right	lower	right	lower	0	619	ses-01	720
sub-023	2	351	crossed	same	same	100	right	lower	right	lower	0	1302	ses-01	721
sub-023	2	352	crossed	different	different	800	right	upper	left	lower	0	1040	ses-01	722
sub-023	2	353	crossed	same	different	100	right	upper	right	lower	0	1847	ses-01	723
sub-023	2	354	crossed	same	same	50	right	lower	right	lower	0	1511	ses-01	724
sub-023	2	355	crossed	same	same	50	left	lower	left	lower	0	2174	ses-01	725
sub-023	2	356	crossed	different	different	800	right	lower	left	upper	0	2453	ses-01	726
sub-023	2	357	crossed	same	different	100	left	upper	left	lower	0	1246	ses-01	727
sub-023	2	358	crossed	different	same	100	left	lower	right	lower	1	2264	ses-01	728
sub-023	2	360	crossed	different	different	100	right	upper	left	lower	0	1469	ses-01	729
sub-023	2	361	crossed	different	same	300	right	lower	left	lower	0	2627	ses-01	730
sub-023	2	362	crossed	different	different	300	left	upper	right	lower	0	1188	ses-01	731
sub-023	2	363	crossed	same	same	800	left	lower	left	lower	1	914	ses-01	732
sub-023	2	365	crossed	different	same	300	right	lower	left	lower	0	1884	ses-01	733
sub-023	2	366	crossed	different	different	800	right	lower	left	upper	1	710	ses-01	734
sub-023	2	367	crossed	same	same	300	right	lower	right	lower	0	1784	ses-01	735
sub-023	2	368	crossed	same	same	50	left	lower	left	lower	0	1642	ses-01	736
sub-023	2	369	crossed	same	different	50	left	upper	left	lower	0	682	ses-01	737
sub-023	2	370	crossed	different	different	300	right	upper	left	lower	0	841	ses-01	738
sub-023	2	371	crossed	different	different	100	right	lower	left	upper	0	1575	ses-01	739
sub-023	2	372	crossed	same	same	100	right	lower	right	lower	0	721	ses-01	740
sub-023	2	373	crossed	same	different	50	right	lower	right	upper	0	581	ses-01	741
sub-023	2	374	crossed	different	different	100	left	upper	right	lower	0	1290	ses-01	742
sub-023	2	375	crossed	same	different	100	left	lower	left	upper	1	1272	ses-01	743
sub-023	2	376	crossed	same	same	300	left	lower	left	lower	0	848	ses-01	744
sub-023	2	377	crossed	same	different	800	left	lower	left	upper	0	524	ses-01	745
sub-023	2	378	crossed	different	same	100	left	lower	right	lower	0	834	ses-01	746
sub-023	2	379	crossed	same	same	300	right	lower	right	lower	0	1261	ses-01	747
sub-023	2	380	crossed	different	same	800	left	lower	right	lower	1	806	ses-01	748
sub-023	2	381	crossed	same	same	800	left	lower	left	lower	0	809	ses-01	749
sub-023	2	382	crossed	same	different	800	right	upper	right	lower	0	1183	ses-01	750
sub-023	2	383	crossed	same	same	800	left	lower	left	lower	0	874	ses-01	751
sub-023	2	384	crossed	different	different	50	right	upper	left	lower	0	1541	ses-01	752
sub-023	2	385	crossed	different	different	800	left	upper	right	lower	0	1006	ses-01	753
sub-023	2	386	crossed	same	same	50	left	lower	left	lower	1	2583	ses-01	754
sub-023	2	387	crossed	same	same	50	left	lower	left	lower	1	2505	ses-01	755
sub-023	2	388	crossed	different	same	300	left	lower	right	lower	0	1729	ses-01	756
sub-023	2	389	crossed	same	different	300	left	lower	left	upper	0	1100	ses-01	757
sub-023	2	390	crossed	different	different	50	right	upper	left	lower	1	2466	ses-01	758
sub-023	2	391	crossed	same	same	100	left	lower	left	lower	0	909	ses-01	759
sub-023	2	392	crossed	different	same	100	left	lower	right	lower	0	1511	ses-01	760
sub-023	2	393	crossed	different	different	300	right	upper	left	lower	0	1234	ses-01	761
sub-023	2	395	crossed	different	different	800	left	lower	right	upper	0	609	ses-01	762
sub-023	2	396	crossed	different	same	300	right	lower	left	lower	0	760	ses-01	763
sub-023	2	397	crossed	different	same	300	right	lower	left	lower	0	1032	ses-01	764
sub-023	2	398	crossed	different	same	100	left	lower	right	lower	1	2195	ses-01	765
sub-023	2	399	crossed	different	different	50	right	lower	left	upper	0	1521	ses-01	766
sub-023	2	400	crossed	different	different	100	right	lower	left	upper	0	766	ses-01	767
sub-023	2	401	crossed	different	same	50	right	lower	left	lower	0	2537	ses-01	768
sub-023	1	3	uncrossed	different	different	100	right	upper	left	lower	0	757	ses-01	769
sub-023	1	4	uncrossed	different	same	100	right	lower	left	lower	0	663	ses-01	770
sub-023	1	5	uncrossed	same	different	100	right	upper	right	lower	0	721	ses-01	771
sub-023	1	6	uncrossed	same	different	800	right	upper	right	lower	0	123	ses-01	772
sub-023	1	7	uncrossed	different	different	300	right	lower	left	upper	0	854	ses-01	773
sub-023	1	8	uncrossed	same	different	100	right	lower	right	upper	0	896	ses-01	774
sub-023	1	9	uncrossed	same	same	50	left	lower	left	lower	0	974	ses-01	775
sub-023	1	10	uncrossed	different	same	800	left	lower	right	lower	0	826	ses-01	776
sub-023	1	11	uncrossed	same	same	100	right	lower	right	lower	0	893	ses-01	777
sub-023	1	12	uncrossed	same	different	100	right	upper	right	lower	0	940	ses-01	778
sub-023	1	13	uncrossed	same	different	100	left	lower	left	upper	0	1046	ses-01	779
sub-023	1	14	uncrossed	same	same	50	left	lower	left	lower	0	1182	ses-01	780
sub-023	1	15	uncrossed	different	different	800	right	lower	left	upper	0	977	ses-01	781
sub-023	1	16	uncrossed	same	same	300	left	lower	left	lower	0	1015	ses-01	782
sub-023	1	17	uncrossed	different	same	50	right	lower	left	lower	0	990	ses-01	783
sub-023	1	18	uncrossed	different	different	50	right	lower	left	upper	0	708	ses-01	784
sub-023	1	19	uncrossed	same	different	50	right	upper	right	lower	0	685	ses-01	785
sub-023	1	20	uncrossed	same	same	100	left	lower	left	lower	0	1327	ses-01	786
sub-023	1	21	uncrossed	different	same	300	left	lower	right	lower	0	676	ses-01	787
sub-023	1	22	uncrossed	same	different	800	right	upper	right	lower	0	971	ses-01	788
sub-023	1	23	uncrossed	same	same	50	left	lower	left	lower	0	1279	ses-01	789
sub-023	1	24	uncrossed	same	different	800	left	upper	left	lower	0	775	ses-01	790
sub-023	1	25	uncrossed	same	same	50	left	lower	left	lower	0	1279	ses-01	791
sub-023	1	26	uncrossed	same	different	800	right	upper	right	lower	0	805	ses-01	792
sub-023	1	27	uncrossed	different	same	300	right	lower	left	lower	0	626	ses-01	793
sub-023	1	28	uncrossed	same	different	300	right	upper	right	lower	0	755	ses-01	794
sub-023	1	29	uncrossed	different	same	800	right	lower	left	lower	0	864	ses-01	795
sub-023	1	30	uncrossed	different	same	800	right	lower	left	lower	0	1397	ses-01	796
sub-023	1	31	uncrossed	same	same	300	right	lower	right	lower	0	784	ses-01	797
sub-023	1	32	uncrossed	different	same	100	left	lower	right	lower	0	615	ses-01	798
sub-023	1	33	uncrossed	same	same	800	left	lower	left	lower	0	692	ses-01	799
sub-023	1	34	uncrossed	different	same	300	right	lower	left	lower	0	2121	ses-01	800
sub-023	1	35	uncrossed	same	different	50	left	upper	left	lower	0	961	ses-01	801
sub-023	1	36	uncrossed	different	same	300	right	lower	left	lower	0	535	ses-01	802
sub-023	1	37	uncrossed	same	different	300	left	lower	left	upper	0	760	ses-01	803
sub-023	1	38	uncrossed	different	different	50	left	upper	right	lower	0	967	ses-01	804
sub-023	1	39	uncrossed	different	different	100	left	upper	right	lower	0	1423	ses-01	805
sub-023	1	40	uncrossed	different	same	300	left	lower	right	lower	0	646	ses-01	806
sub-023	1	41	uncrossed	different	same	800	right	lower	left	lower	1	625	ses-01	807
sub-023	1	42	uncrossed	same	same	50	right	lower	right	lower	0	1231	ses-01	808
sub-023	1	43	uncrossed	same	different	100	right	lower	right	upper	0	2125	ses-01	809
sub-023	1	44	uncrossed	same	different	100	left	lower	left	upper	0	1740	ses-01	810
sub-023	1	45	uncrossed	different	same	800	left	lower	right	lower	0	646	ses-01	811
sub-023	1	46	uncrossed	same	different	50	left	upper	left	lower	0	1881	ses-01	812
sub-023	1	47	uncrossed	same	different	300	left	upper	left	lower	0	1629	ses-01	813
sub-023	1	48	uncrossed	different	different	800	left	lower	right	upper	0	634	ses-01	814
sub-023	1	49	uncrossed	different	different	800	left	lower	right	upper	0	681	ses-01	815
sub-023	1	50	uncrossed	different	same	100	left	lower	right	lower	0	666	ses-01	816
sub-023	1	51	uncrossed	same	different	300	right	upper	right	lower	0	754	ses-01	817
sub-023	1	52	uncrossed	different	different	300	right	upper	left	lower	0	646	ses-01	818
sub-023	1	53	uncrossed	different	same	300	right	lower	left	lower	0	1423	ses-01	819
sub-023	1	54	uncrossed	same	same	100	left	lower	left	lower	0	753	ses-01	820
sub-023	1	55	uncrossed	different	same	50	left	lower	right	lower	0	810	ses-01	821
sub-023	1	56	uncrossed	different	same	800	left	lower	right	lower	0	654	ses-01	822
sub-023	1	57	uncrossed	different	different	100	right	upper	left	lower	0	748	ses-01	823
sub-023	1	58	uncrossed	same	same	800	left	lower	left	lower	0	647	ses-01	824
sub-023	1	59	uncrossed	same	same	300	left	lower	left	lower	0	656	ses-01	825
sub-023	1	60	uncrossed	different	different	100	left	upper	right	lower	0	719	ses-01	826
sub-023	1	61	uncrossed	same	same	800	right	lower	right	lower	0	806	ses-01	827
sub-023	1	62	uncrossed	same	same	100	right	lower	right	lower	0	720	ses-01	828
sub-023	1	63	uncrossed	same	same	50	left	lower	left	lower	0	1180	ses-01	829
sub-023	1	64	uncrossed	different	same	50	left	lower	right	lower	0	1299	ses-01	830
sub-023	1	65	uncrossed	different	different	800	left	upper	right	lower	0	789	ses-01	831
sub-023	1	66	uncrossed	same	same	50	right	lower	right	lower	0	866	ses-01	832
sub-023	1	67	uncrossed	different	different	100	right	lower	left	upper	0	602	ses-01	833
sub-023	1	68	uncrossed	same	same	800	right	lower	right	lower	0	1334	ses-01	834
sub-023	1	70	uncrossed	different	different	50	right	upper	left	lower	0	1992	ses-01	835
sub-023	1	71	uncrossed	same	same	300	right	lower	right	lower	0	1015	ses-01	836
sub-023	1	72	uncrossed	different	different	50	right	upper	left	lower	0	831	ses-01	837
sub-023	1	73	uncrossed	same	same	800	right	lower	right	lower	0	813	ses-01	838
sub-023	1	74	uncrossed	same	same	300	right	lower	right	lower	0	682	ses-01	839
sub-023	1	75	uncrossed	different	different	100	left	upper	right	lower	0	642	ses-01	840
sub-023	1	76	uncrossed	different	different	300	left	lower	right	upper	0	583	ses-01	841
sub-023	1	77	uncrossed	same	different	800	left	lower	left	upper	1	610	ses-01	842
sub-023	1	78	uncrossed	same	same	300	left	lower	left	lower	0	1367	ses-01	843
sub-023	1	79	uncrossed	same	same	50	left	lower	left	lower	0	1545	ses-01	844
sub-023	1	80	uncrossed	different	same	100	left	lower	right	lower	0	721	ses-01	845
sub-023	1	81	uncrossed	different	different	300	right	lower	left	upper	0	1180	ses-01	846
sub-023	1	82	uncrossed	different	same	800	right	lower	left	lower	0	672	ses-01	847
sub-023	1	83	uncrossed	different	different	50	left	upper	right	lower	0	934	ses-01	848
sub-023	1	84	uncrossed	different	same	50	right	lower	left	lower	0	651	ses-01	849
sub-023	1	85	uncrossed	different	different	100	left	upper	right	lower	0	748	ses-01	850
sub-023	1	86	uncrossed	different	same	800	left	lower	right	lower	0	761	ses-01	851
sub-023	1	87	uncrossed	same	different	100	right	lower	right	upper	0	755	ses-01	852
sub-023	1	88	uncrossed	different	same	300	left	lower	right	lower	0	673	ses-01	853
sub-023	1	89	uncrossed	different	same	50	right	lower	left	lower	0	613	ses-01	854
sub-023	1	90	uncrossed	different	same	100	right	lower	left	lower	0	599	ses-01	855
sub-023	1	91	uncrossed	same	same	300	left	lower	left	lower	0	808	ses-01	856
sub-023	1	92	uncrossed	same	same	800	left	lower	left	lower	0	1089	ses-01	857
sub-023	1	93	uncrossed	different	different	50	left	upper	right	lower	0	961	ses-01	858
sub-023	1	94	uncrossed	different	different	300	right	upper	left	lower	0	810	ses-01	859
sub-023	1	95	uncrossed	same	different	300	right	lower	right	upper	0	932	ses-01	860
sub-023	1	96	uncrossed	different	different	800	left	upper	right	lower	0	743	ses-01	861
sub-023	1	97	uncrossed	different	same	800	right	lower	left	lower	0	692	ses-01	862
sub-023	1	98	uncrossed	different	different	300	right	upper	left	lower	0	1332	ses-01	863
sub-023	1	99	uncrossed	different	different	800	right	upper	left	lower	0	575	ses-01	864
sub-023	1	100	uncrossed	same	same	50	right	lower	right	lower	0	829	ses-01	865
sub-023	1	101	uncrossed	same	same	50	right	lower	right	lower	0	777	ses-01	866
sub-023	1	102	uncrossed	same	different	100	left	upper	left	lower	0	1048	ses-01	867
sub-023	1	103	uncrossed	same	different	300	left	lower	left	upper	1	798	ses-01	868
sub-023	1	104	uncrossed	different	different	100	right	lower	left	upper	0	708	ses-01	869
sub-023	1	105	uncrossed	different	same	50	left	lower	right	lower	0	993	ses-01	870
sub-023	1	106	uncrossed	different	same	100	left	lower	right	lower	0	795	ses-01	871
sub-023	1	107	uncrossed	different	different	100	right	lower	left	upper	0	810	ses-01	872
sub-023	1	108	uncrossed	different	different	100	left	lower	right	upper	0	813	ses-01	873
sub-023	1	109	uncrossed	same	same	300	left	lower	left	lower	0	762	ses-01	874
sub-023	1	110	uncrossed	different	different	800	left	lower	right	upper	0	708	ses-01	875
sub-023	1	111	uncrossed	same	same	50	right	lower	right	lower	0	1504	ses-01	876
sub-023	1	112	uncrossed	different	same	300	right	lower	left	lower	0	702	ses-01	877
sub-023	1	113	uncrossed	different	same	100	left	lower	right	lower	0	1104	ses-01	878
sub-023	1	114	uncrossed	same	different	100	right	upper	right	lower	0	744	ses-01	879
sub-023	1	115	uncrossed	same	different	50	right	upper	right	lower	0	975	ses-01	880
sub-023	1	116	uncrossed	same	same	100	right	lower	right	lower	0	827	ses-01	881
sub-023	1	117	uncrossed	different	different	800	right	upper	left	lower	0	767	ses-01	882
sub-023	1	118	uncrossed	different	different	50	right	upper	left	lower	0	1328	ses-01	883
sub-023	1	119	uncrossed	same	different	100	left	upper	left	lower	0	1036	ses-01	884
sub-023	1	120	uncrossed	different	same	800	right	lower	left	lower	0	823	ses-01	885
sub-023	1	121	uncrossed	different	different	50	right	lower	left	upper	0	911	ses-01	886
sub-023	1	122	uncrossed	same	same	300	right	lower	right	lower	0	967	ses-01	887
sub-023	1	123	uncrossed	same	same	800	right	lower	right	lower	0	1443	ses-01	888
sub-023	1	124	uncrossed	different	different	800	left	upper	right	lower	0	1295	ses-01	889
sub-023	1	125	uncrossed	different	different	300	right	upper	left	lower	0	1492	ses-01	890
sub-023	1	126	uncrossed	different	same	50	left	lower	right	lower	0	893	ses-01	891
sub-023	1	127	uncrossed	same	same	300	right	lower	right	lower	0	1699	ses-01	892
sub-023	1	128	uncrossed	different	different	50	left	lower	right	upper	0	1247	ses-01	893
sub-023	1	129	uncrossed	same	different	50	left	lower	left	upper	0	2349	ses-01	894
sub-023	1	130	uncrossed	same	same	100	left	lower	left	lower	0	760	ses-01	895
sub-023	1	131	uncrossed	same	different	50	right	lower	right	upper	0	1127	ses-01	896
sub-023	1	132	uncrossed	same	same	50	right	lower	right	lower	0	1055	ses-01	897
sub-023	1	133	uncrossed	same	same	100	right	lower	right	lower	0	1033	ses-01	898
sub-023	1	134	uncrossed	different	different	50	left	lower	right	upper	0	677	ses-01	899
sub-023	1	135	uncrossed	different	same	800	left	lower	right	lower	0	858	ses-01	900
sub-023	1	136	uncrossed	different	different	50	left	upper	right	lower	0	939	ses-01	901
sub-023	1	137	uncrossed	same	same	300	left	lower	left	lower	0	835	ses-01	902
sub-023	1	138	uncrossed	different	different	100	right	upper	left	lower	0	776	ses-01	903
sub-023	1	139	uncrossed	different	same	50	right	lower	left	lower	0	803	ses-01	904
sub-023	1	140	uncrossed	different	same	300	left	lower	right	lower	0	1142	ses-01	905
sub-023	1	141	uncrossed	different	different	300	left	upper	right	lower	0	630	ses-01	906
sub-023	1	142	uncrossed	different	same	100	right	lower	left	lower	0	672	ses-01	907
sub-023	1	143	uncrossed	different	same	100	right	lower	left	lower	0	808	ses-01	908
sub-023	1	144	uncrossed	same	same	300	right	lower	right	lower	0	753	ses-01	909
sub-023	1	145	uncrossed	different	different	800	right	upper	left	lower	0	872	ses-01	910
sub-023	1	146	uncrossed	same	different	800	left	lower	left	upper	0	653	ses-01	911
sub-023	1	147	uncrossed	same	same	50	left	lower	left	lower	0	978	ses-01	912
sub-023	1	148	uncrossed	same	same	800	left	lower	left	lower	0	780	ses-01	913
sub-023	1	149	uncrossed	same	different	100	left	upper	left	lower	0	849	ses-01	914
sub-023	1	150	uncrossed	same	same	800	left	lower	left	lower	0	625	ses-01	915
sub-023	1	151	uncrossed	different	same	50	left	lower	right	lower	0	687	ses-01	916
sub-023	1	152	uncrossed	same	same	100	left	lower	left	lower	0	1630	ses-01	917
sub-023	1	153	uncrossed	different	different	50	right	lower	left	upper	0	653	ses-01	918
sub-023	1	154	uncrossed	different	same	300	left	lower	right	lower	0	592	ses-01	919
sub-023	1	155	uncrossed	same	different	100	right	lower	right	upper	0	1470	ses-01	920
sub-023	1	156	uncrossed	different	different	100	left	lower	right	upper	0	803	ses-01	921
sub-023	1	157	uncrossed	same	same	800	left	lower	left	lower	0	688	ses-01	922
sub-023	1	158	uncrossed	same	same	100	left	lower	left	lower	0	861	ses-01	923
sub-023	1	159	uncrossed	same	same	50	right	lower	right	lower	0	751	ses-01	924
sub-023	1	160	uncrossed	different	same	50	right	lower	left	lower	0	887	ses-01	925
sub-023	1	161	uncrossed	same	different	800	left	upper	left	lower	0	676	ses-01	926
sub-023	1	162	uncrossed	same	different	100	left	upper	left	lower	0	1354	ses-01	927
sub-023	1	163	uncrossed	same	different	300	right	lower	right	upper	0	699	ses-01	928
sub-023	1	164	uncrossed	same	different	100	right	upper	right	lower	0	896	ses-01	929
sub-023	1	165	uncrossed	different	different	300	left	lower	right	upper	0	741	ses-01	930
sub-023	1	166	uncrossed	same	different	300	right	upper	right	lower	0	682	ses-01	931
sub-023	1	167	uncrossed	same	different	50	left	lower	left	upper	0	1357	ses-01	932
sub-023	1	168	uncrossed	same	same	800	right	lower	right	lower	0	1848	ses-01	933
sub-023	1	169	uncrossed	same	same	100	right	lower	right	lower	0	714	ses-01	934
sub-023	1	170	uncrossed	different	same	800	left	lower	right	lower	0	1031	ses-01	935
sub-023	1	171	uncrossed	different	same	800	left	lower	right	lower	0	1910	ses-01	936
sub-023	1	172	uncrossed	same	different	800	right	lower	right	upper	0	2241	ses-01	937
sub-023	1	173	uncrossed	different	different	300	left	lower	right	upper	0	1553	ses-01	938
sub-023	1	174	uncrossed	same	different	800	left	upper	left	lower	0	804	ses-01	939
sub-023	1	175	uncrossed	same	different	300	left	lower	left	upper	0	868	ses-01	940
sub-023	1	176	uncrossed	different	different	800	right	lower	left	upper	0	623	ses-01	941
sub-023	1	177	uncrossed	different	different	300	left	lower	right	upper	0	608	ses-01	942
sub-023	1	178	uncrossed	same	same	100	right	lower	right	lower	0	697	ses-01	943
sub-023	1	179	uncrossed	same	different	50	right	upper	right	lower	0	584	ses-01	944
sub-023	1	180	uncrossed	same	same	800	right	lower	right	lower	0	615	ses-01	945
sub-023	1	181	uncrossed	same	same	50	right	lower	right	lower	0	578	ses-01	946
sub-023	1	182	uncrossed	different	different	100	right	upper	left	lower	0	768	ses-01	947
sub-023	1	183	uncrossed	same	same	50	left	lower	left	lower	0	1361	ses-01	948
sub-023	1	184	uncrossed	different	same	100	right	lower	left	lower	0	1888	ses-01	949
sub-023	1	185	uncrossed	different	different	100	left	lower	right	upper	0	581	ses-01	950
sub-023	1	186	uncrossed	same	same	300	left	lower	left	lower	0	661	ses-01	951
sub-023	1	187	uncrossed	different	same	300	left	lower	right	lower	0	741	ses-01	952
sub-023	1	188	uncrossed	same	same	100	right	lower	right	lower	0	702	ses-01	953
sub-023	1	189	uncrossed	same	different	300	left	upper	left	lower	0	1821	ses-01	954
sub-023	1	190	uncrossed	same	same	800	right	lower	right	lower	0	690	ses-01	955
sub-023	1	191	uncrossed	different	same	50	left	lower	right	lower	0	690	ses-01	956
sub-023	1	192	uncrossed	same	different	300	right	upper	right	lower	0	1058	ses-01	957
sub-023	1	193	uncrossed	same	different	300	left	lower	left	upper	0	790	ses-01	958
sub-023	1	194	uncrossed	same	different	50	right	upper	right	lower	0	590	ses-01	959
sub-023	1	195	uncrossed	same	different	300	right	upper	right	lower	0	492	ses-01	960
sub-023	1	196	uncrossed	same	same	800	right	lower	right	lower	0	510	ses-01	961
sub-023	1	197	uncrossed	different	different	300	right	lower	left	upper	0	696	ses-01	962
sub-023	1	198	uncrossed	different	different	50	left	lower	right	upper	0	1119	ses-01	963
sub-023	1	199	uncrossed	different	same	100	right	lower	left	lower	0	736	ses-01	964
sub-023	1	200	uncrossed	different	same	50	right	lower	left	lower	0	523	ses-01	965
sub-023	1	201	uncrossed	different	same	300	right	lower	left	lower	0	595	ses-01	966
sub-023	1	202	uncrossed	different	same	800	right	lower	left	lower	0	791	ses-01	967
sub-023	1	203	uncrossed	different	same	50	left	lower	right	lower	0	586	ses-01	968
sub-023	1	204	uncrossed	same	same	800	right	lower	right	lower	0	765	ses-01	969
sub-023	1	205	uncrossed	same	same	50	right	lower	right	lower	0	945	ses-01	970
sub-023	1	206	uncrossed	different	same	100	left	lower	right	lower	0	757	ses-01	971
sub-023	1	207	uncrossed	different	different	800	right	upper	left	lower	0	655	ses-01	972
sub-023	1	208	uncrossed	same	same	800	left	lower	left	lower	0	681	ses-01	973
sub-023	1	209	uncrossed	same	different	50	right	lower	right	upper	1	949	ses-01	974
sub-023	1	210	uncrossed	same	different	300	right	lower	right	upper	0	579	ses-01	975
sub-023	1	211	uncrossed	different	same	800	left	lower	right	lower	0	793	ses-01	976
sub-023	1	212	uncrossed	different	different	100	left	lower	right	upper	0	697	ses-01	977
sub-023	1	213	uncrossed	same	same	300	right	lower	right	lower	0	707	ses-01	978
sub-023	1	214	uncrossed	different	different	800	right	upper	left	lower	0	727	ses-01	979
sub-023	1	215	uncrossed	same	same	100	left	lower	left	lower	0	843	ses-01	980
sub-023	1	216	uncrossed	same	different	800	left	upper	left	lower	0	1340	ses-01	981
sub-023	1	217	uncrossed	different	same	50	left	lower	right	lower	0	909	ses-01	982
sub-023	1	218	uncrossed	same	same	800	right	lower	right	lower	0	701	ses-01	983
sub-023	1	219	uncrossed	same	same	800	right	lower	right	lower	0	1579	ses-01	984
sub-023	1	220	uncrossed	different	same	50	right	lower	left	lower	0	863	ses-01	985
sub-023	1	221	uncrossed	different	same	100	left	lower	right	lower	0	1630	ses-01	986
sub-023	1	222	uncrossed	same	same	100	right	lower	right	lower	0	793	ses-01	987
sub-023	1	223	uncrossed	different	same	800	right	lower	left	lower	0	739	ses-01	988
sub-023	1	224	uncrossed	same	same	100	right	lower	right	lower	0	1287	ses-01	989
sub-023	1	225	uncrossed	different	different	100	right	lower	left	upper	0	1008	ses-01	990
sub-023	1	226	uncrossed	same	different	100	right	lower	right	upper	0	783	ses-01	991
sub-023	1	227	uncrossed	different	same	100	right	lower	left	lower	0	734	ses-01	992
sub-023	1	228	uncrossed	same	same	100	right	lower	right	lower	0	644	ses-01	993
sub-023	1	229	uncrossed	different	same	800	right	lower	left	lower	0	654	ses-01	994
sub-023	1	230	uncrossed	same	same	300	left	lower	left	lower	0	746	ses-01	995
sub-023	1	231	uncrossed	different	same	300	left	lower	right	lower	0	803	ses-01	996
sub-023	1	232	uncrossed	different	different	100	right	lower	left	upper	0	693	ses-01	997
sub-023	1	233	uncrossed	different	different	300	left	lower	right	upper	0	579	ses-01	998
sub-023	1	234	uncrossed	different	different	300	left	upper	right	lower	0	538	ses-01	999
sub-023	1	235	uncrossed	different	same	50	right	lower	left	lower	0	582	ses-01	1000
sub-023	1	236	uncrossed	different	different	100	right	upper	left	lower	0	540	ses-01	1001
sub-023	1	237	uncrossed	different	different	800	left	upper	right	lower	0	560	ses-01	1002
sub-023	1	238	uncrossed	same	different	800	right	lower	right	upper	0	727	ses-01	1003
sub-023	1	239	uncrossed	same	same	300	left	lower	left	lower	0	753	ses-01	1004
sub-023	1	240	uncrossed	same	different	100	left	upper	left	lower	0	797	ses-01	1005
sub-023	1	241	uncrossed	different	different	50	left	upper	right	lower	0	866	ses-01	1006
sub-023	1	242	uncrossed	same	different	300	left	lower	left	upper	0	568	ses-01	1007
sub-023	1	243	uncrossed	different	same	100	left	lower	right	lower	0	579	ses-01	1008
sub-023	1	244	uncrossed	same	different	100	left	lower	left	upper	0	604	ses-01	1009
sub-023	1	245	uncrossed	different	different	50	left	lower	right	upper	0	584	ses-01	1010
sub-023	1	246	uncrossed	same	same	300	right	lower	right	lower	0	572	ses-01	1011
sub-023	1	247	uncrossed	different	different	300	left	upper	right	lower	0	574	ses-01	1012
sub-023	1	248	uncrossed	different	same	100	right	lower	left	lower	0	557	ses-01	1013
sub-023	1	249	uncrossed	different	same	800	right	lower	left	lower	0	640	ses-01	1014
sub-023	1	250	uncrossed	different	different	50	left	lower	right	upper	0	1639	ses-01	1015
sub-023	1	251	uncrossed	different	different	50	right	lower	left	upper	0	683	ses-01	1016
sub-023	1	252	uncrossed	same	same	100	right	lower	right	lower	0	648	ses-01	1017
sub-023	1	253	uncrossed	same	different	50	left	upper	left	lower	0	886	ses-01	1018
sub-023	1	254	uncrossed	different	same	800	right	lower	left	lower	0	578	ses-01	1019
sub-023	1	255	uncrossed	same	different	100	left	lower	left	upper	0	899	ses-01	1020
sub-023	1	256	uncrossed	same	same	300	left	lower	left	lower	0	1594	ses-01	1021
sub-023	1	257	uncrossed	different	same	800	left	lower	right	lower	0	1062	ses-01	1022
sub-023	1	258	uncrossed	same	same	100	left	lower	left	lower	0	1645	ses-01	1023
sub-023	1	259	uncrossed	different	same	800	left	lower	right	lower	0	737	ses-01	1024
sub-023	1	260	uncrossed	same	different	300	right	lower	right	upper	0	835	ses-01	1025
sub-023	1	261	uncrossed	same	different	100	right	upper	right	lower	0	815	ses-01	1026
sub-023	1	262	uncrossed	same	same	50	right	lower	right	lower	0	625	ses-01	1027
sub-023	1	263	uncrossed	different	different	800	left	lower	right	upper	0	886	ses-01	1028
sub-023	1	264	uncrossed	different	same	50	left	lower	right	lower	0	1882	ses-01	1029
sub-023	1	265	uncrossed	different	same	300	right	lower	left	lower	0	597	ses-01	1030
sub-023	1	266	uncrossed	same	different	50	right	upper	right	lower	0	646	ses-01	1031
sub-023	1	267	uncrossed	same	same	300	right	lower	right	lower	0	2450	ses-01	1032
sub-023	1	268	uncrossed	different	same	100	right	lower	left	lower	0	606	ses-01	1033
sub-023	1	269	uncrossed	different	same	300	left	lower	right	lower	0	1452	ses-01	1034
sub-023	1	270	uncrossed	different	same	300	right	lower	left	lower	0	601	ses-01	1035
sub-023	1	271	uncrossed	same	same	100	left	lower	left	lower	0	867	ses-01	1036
sub-023	1	272	uncrossed	same	same	50	left	lower	left	lower	0	1417	ses-01	1037
sub-023	1	273	uncrossed	same	different	300	right	lower	right	upper	0	724	ses-01	1038
sub-023	1	274	uncrossed	different	same	300	right	lower	left	lower	0	591	ses-01	1039
sub-023	1	275	uncrossed	different	same	50	left	lower	right	lower	0	564	ses-01	1040
sub-023	1	276	uncrossed	different	different	800	left	lower	right	upper	0	571	ses-01	1041
sub-023	1	277	uncrossed	same	different	50	left	upper	left	lower	0	658	ses-01	1042
sub-023	1	278	uncrossed	same	different	100	left	lower	left	upper	0	935	ses-01	1043
sub-023	1	279	uncrossed	different	same	100	left	lower	right	lower	0	651	ses-01	1044
sub-023	1	280	uncrossed	same	different	300	left	upper	left	lower	0	661	ses-01	1045
sub-023	1	281	uncrossed	different	different	50	right	upper	left	lower	0	754	ses-01	1046
sub-023	1	282	uncrossed	different	different	50	right	lower	left	upper	0	1065	ses-01	1047
sub-023	1	283	uncrossed	same	different	50	right	upper	right	lower	0	807	ses-01	1048
sub-023	1	284	uncrossed	same	different	800	left	upper	left	lower	0	1460	ses-01	1049
sub-023	1	285	uncrossed	different	same	50	left	lower	right	lower	0	1020	ses-01	1050
sub-023	1	286	uncrossed	same	same	100	right	lower	right	lower	0	680	ses-01	1051
sub-023	1	287	uncrossed	same	same	300	left	lower	left	lower	0	1586	ses-01	1052
sub-023	1	288	uncrossed	same	same	100	left	lower	left	lower	0	1048	ses-01	1053
sub-023	1	289	uncrossed	different	different	50	right	upper	left	lower	0	810	ses-01	1054
sub-023	1	290	uncrossed	different	different	800	right	lower	left	upper	0	565	ses-01	1055
sub-023	1	291	uncrossed	same	different	50	left	upper	left	lower	1	626	ses-01	1056
sub-023	1	292	uncrossed	different	same	800	right	lower	left	lower	0	625	ses-01	1057
sub-023	1	293	uncrossed	same	same	50	left	lower	left	lower	0	1189	ses-01	1058
sub-023	1	294	uncrossed	same	different	50	left	lower	left	upper	0	809	ses-01	1059
sub-023	1	295	uncrossed	same	same	800	left	lower	left	lower	0	724	ses-01	1060
sub-023	1	296	uncrossed	same	same	50	left	lower	left	lower	0	1115	ses-01	1061
sub-023	1	297	uncrossed	different	same	300	right	lower	left	lower	0	1005	ses-01	1062
sub-023	1	298	uncrossed	same	same	50	left	lower	left	lower	0	1687	ses-01	1063
sub-023	1	299	uncrossed	different	same	50	right	lower	left	lower	0	899	ses-01	1064
sub-023	1	300	uncrossed	different	same	300	left	lower	right	lower	0	644	ses-01	1065
sub-023	1	301	uncrossed	different	different	100	right	upper	left	lower	0	730	ses-01	1066
sub-023	1	302	uncrossed	same	same	300	right	lower	right	lower	0	718	ses-01	1067
sub-023	1	303	uncrossed	same	different	50	right	lower	right	upper	0	901	ses-01	1068
sub-023	1	304	uncrossed	same	same	300	right	lower	right	lower	0	719	ses-01	1069
sub-023	1	305	uncrossed	same	different	100	right	upper	right	lower	0	764	ses-01	1070
sub-023	1	306	uncrossed	different	different	300	left	upper	right	lower	0	649	ses-01	1071
sub-023	1	307	uncrossed	different	different	300	left	upper	right	lower	0	720	ses-01	1072
sub-023	1	308	uncrossed	same	different	800	right	upper	right	lower	0	951	ses-01	1073
sub-023	1	309	uncrossed	different	same	100	left	lower	right	lower	0	912	ses-01	1074
sub-023	1	310	uncrossed	same	same	800	right	lower	right	lower	0	1385	ses-01	1075
sub-023	1	311	uncrossed	same	same	800	left	lower	left	lower	0	976	ses-01	1076
sub-023	1	312	uncrossed	different	same	300	right	lower	left	lower	0	1149	ses-01	1077
sub-023	1	313	uncrossed	different	same	300	left	lower	right	lower	0	951	ses-01	1078
sub-023	1	314	uncrossed	same	different	300	left	upper	left	lower	0	791	ses-01	1079
sub-023	1	315	uncrossed	same	different	800	left	upper	left	lower	0	957	ses-01	1080
sub-023	1	316	uncrossed	different	different	300	left	lower	right	upper	0	954	ses-01	1081
sub-023	1	317	uncrossed	same	different	100	right	lower	right	upper	0	930	ses-01	1082
sub-023	1	318	uncrossed	different	different	800	left	upper	right	lower	0	2207	ses-01	1083
sub-023	1	319	uncrossed	different	different	100	right	lower	left	upper	0	918	ses-01	1084
sub-023	1	320	uncrossed	same	different	100	left	upper	left	lower	0	691	ses-01	1085
sub-023	1	321	uncrossed	different	different	100	left	upper	right	lower	0	1893	ses-01	1086
sub-023	1	322	uncrossed	same	different	50	right	lower	right	upper	0	771	ses-01	1087
sub-023	1	323	uncrossed	same	different	300	left	upper	left	lower	0	572	ses-01	1088
sub-023	1	324	uncrossed	same	same	50	right	lower	right	lower	0	899	ses-01	1089
sub-023	1	325	uncrossed	same	same	100	left	lower	left	lower	0	737	ses-01	1090
sub-023	1	326	uncrossed	different	different	50	right	upper	left	lower	0	642	ses-01	1091
sub-023	1	327	uncrossed	different	same	100	right	lower	left	lower	0	1477	ses-01	1092
sub-023	1	328	uncrossed	same	different	800	left	lower	left	upper	0	781	ses-01	1093
sub-023	1	329	uncrossed	same	different	50	left	lower	left	upper	0	1684	ses-01	1094
sub-023	1	330	uncrossed	same	different	800	right	upper	right	lower	0	1839	ses-01	1095
sub-023	1	331	uncrossed	same	different	50	right	lower	right	upper	0	1328	ses-01	1096
sub-023	1	332	uncrossed	same	different	50	right	lower	right	upper	0	1070	ses-01	1097
sub-023	1	333	uncrossed	same	different	300	right	upper	right	lower	0	620	ses-01	1098
sub-023	1	334	uncrossed	different	different	300	right	lower	left	upper	0	716	ses-01	1099
sub-023	1	335	uncrossed	different	same	50	right	lower	left	lower	0	1828	ses-01	1100
sub-023	1	336	uncrossed	same	same	300	left	lower	left	lower	0	2048	ses-01	1101
sub-023	1	337	uncrossed	different	same	300	right	lower	left	lower	0	802	ses-01	1102
sub-023	1	338	uncrossed	same	different	800	right	lower	right	upper	0	617	ses-01	1103
sub-023	1	339	uncrossed	different	different	300	right	lower	left	upper	0	700	ses-01	1104
sub-023	1	340	uncrossed	same	different	300	left	upper	left	lower	0	758	ses-01	1105
sub-023	1	341	uncrossed	different	different	800	right	lower	left	upper	0	609	ses-01	1106
sub-023	1	342	uncrossed	same	same	800	left	lower	left	lower	0	641	ses-01	1107
sub-023	1	343	uncrossed	same	different	800	left	lower	left	upper	0	1390	ses-01	1108
sub-023	1	344	uncrossed	different	different	800	right	lower	left	upper	0	624	ses-01	1109
sub-023	1	345	uncrossed	same	different	50	left	upper	left	lower	0	1215	ses-01	1110
sub-023	1	346	uncrossed	same	different	800	right	lower	right	upper	0	1662	ses-01	1111
sub-023	1	347	uncrossed	different	same	50	right	lower	left	lower	0	764	ses-01	1112
sub-023	1	348	uncrossed	different	different	50	left	lower	right	upper	0	780	ses-01	1113
sub-023	1	349	uncrossed	different	different	50	left	upper	right	lower	0	615	ses-01	1114
sub-023	1	350	uncrossed	different	same	100	right	lower	left	lower	0	684	ses-01	1115
sub-023	1	351	uncrossed	same	same	50	right	lower	right	lower	0	591	ses-01	1116
sub-023	1	352	uncrossed	different	same	300	left	lower	right	lower	0	2009	ses-01	1117
sub-023	1	353	uncrossed	same	different	800	right	lower	right	upper	0	635	ses-01	1118
sub-023	1	354	uncrossed	different	same	100	right	lower	left	lower	0	731	ses-01	1119
sub-023	1	355	uncrossed	different	different	300	right	upper	left	lower	0	2266	ses-01	1120
sub-023	1	356	uncrossed	different	same	100	left	lower	right	lower	0	887	ses-01	1121
sub-023	1	357	uncrossed	different	different	100	left	lower	right	upper	0	697	ses-01	1122
sub-023	1	358	uncrossed	different	different	800	left	upper	right	lower	0	692	ses-01	1123
sub-023	1	359	uncrossed	different	different	50	right	lower	left	upper	0	614	ses-01	1124
sub-023	1	360	uncrossed	different	different	800	right	lower	left	upper	0	533	ses-01	1125
sub-023	1	361	uncrossed	same	different	300	right	lower	right	upper	0	682	ses-01	1126
sub-023	1	362	uncrossed	different	same	300	left	lower	right	lower	0	756	ses-01	1127
sub-023	1	363	uncrossed	same	same	800	left	lower	left	lower	0	593	ses-01	1128
sub-023	1	364	uncrossed	same	same	800	left	lower	left	lower	0	796	ses-01	1129
sub-023	1	365	uncrossed	same	same	100	left	lower	left	lower	0	671	ses-01	1130
sub-023	1	366	uncrossed	same	different	50	left	lower	left	upper	0	1577	ses-01	1131
sub-023	1	367	uncrossed	different	different	800	right	upper	left	lower	0	643	ses-01	1132
sub-023	1	368	uncrossed	different	different	800	left	lower	right	upper	0	712	ses-01	1133
sub-023	1	369	uncrossed	same	different	300	left	lower	left	upper	0	572	ses-01	1134
sub-023	1	370	uncrossed	different	different	100	left	upper	right	lower	0	904	ses-01	1135
sub-023	1	372	uncrossed	same	same	300	right	lower	right	lower	0	616	ses-01	1136
sub-023	1	373	uncrossed	different	same	800	left	lower	right	lower	0	571	ses-01	1137
sub-023	1	374	uncrossed	different	same	100	left	lower	right	lower	0	578	ses-01	1138
sub-023	1	375	uncrossed	different	different	300	left	upper	right	lower	0	683	ses-01	1139
sub-023	1	376	uncrossed	same	same	100	left	lower	left	lower	0	657	ses-01	1140
sub-023	1	377	uncrossed	different	same	50	right	lower	left	lower	0	648	ses-01	1141
sub-023	1	378	uncrossed	same	different	800	right	upper	right	lower	0	687	ses-01	1142
sub-023	1	379	uncrossed	same	different	100	left	lower	left	upper	1	726	ses-01	1143
sub-023	1	380	uncrossed	same	different	800	left	lower	left	upper	0	1071	ses-01	1144
sub-023	1	381	uncrossed	different	different	300	right	upper	left	lower	0	1483	ses-01	1145
sub-023	1	382	uncrossed	same	different	800	left	lower	left	upper	0	662	ses-01	1146
sub-023	1	383	uncrossed	same	different	50	left	lower	left	upper	0	1432	ses-01	1147
sub-023	1	384	uncrossed	different	same	50	left	lower	right	lower	0	1303	ses-01	1148
sub-023	1	385	uncrossed	different	same	800	left	lower	right	lower	0	996	ses-01	1149
sub-023	1	386	uncrossed	same	different	800	right	lower	right	upper	0	2526	ses-01	1150
sub-023	1	387	uncrossed	different	different	300	right	lower	left	upper	0	1750	ses-01	1151
sub-023	1	388	uncrossed	different	different	100	left	lower	right	upper	0	2186	ses-01	1152
sub-023	2	2	uncrossed	same	same	100	left	lower	left	lower	0	1703	ses-01	1153
sub-023	2	3	uncrossed	same	same	100	left	lower	left	lower	0	1003	ses-01	1154
sub-023	2	4	uncrossed	same	same	300	left	lower	left	lower	0	649	ses-01	1155
sub-023	2	5	uncrossed	same	different	300	left	lower	left	upper	0	648	ses-01	1156
sub-023	2	6	uncrossed	different	same	300	left	lower	right	lower	0	579	ses-01	1157
sub-023	2	7	uncrossed	different	same	50	right	lower	left	lower	0	1534	ses-01	1158
sub-023	2	8	uncrossed	different	different	300	right	lower	left	upper	0	641	ses-01	1159
sub-023	2	9	uncrossed	different	different	50	right	upper	left	lower	0	725	ses-01	1160
sub-023	2	10	uncrossed	different	different	300	right	upper	left	lower	0	639	ses-01	1161
sub-023	2	11	uncrossed	different	different	300	right	lower	left	upper	0	705	ses-01	1162
sub-023	2	12	uncrossed	same	same	800	left	lower	left	lower	0	894	ses-01	1163
sub-023	2	13	uncrossed	different	same	50	left	lower	right	lower	0	747	ses-01	1164
sub-023	2	14	uncrossed	same	different	50	right	upper	right	lower	0	741	ses-01	1165
sub-023	2	15	uncrossed	same	same	50	left	lower	left	lower	0	1061	ses-01	1166
sub-023	2	16	uncrossed	different	different	800	left	upper	right	lower	0	965	ses-01	1167
sub-023	2	17	uncrossed	same	different	100	right	upper	right	lower	0	776	ses-01	1168
sub-023	2	18	uncrossed	same	same	300	right	lower	right	lower	0	706	ses-01	1169
sub-023	2	19	uncrossed	different	same	800	right	lower	left	lower	0	1230	ses-01	1170
sub-023	2	20	uncrossed	same	different	800	right	lower	right	upper	0	933	ses-01	1171
sub-023	2	21	uncrossed	different	same	300	left	lower	right	lower	0	1179	ses-01	1172
sub-023	2	22	uncrossed	different	different	800	right	lower	left	upper	0	693	ses-01	1173
sub-023	2	23	uncrossed	same	same	800	left	lower	left	lower	0	711	ses-01	1174
sub-023	2	24	uncrossed	different	same	800	right	lower	left	lower	0	646	ses-01	1175
sub-023	2	25	uncrossed	same	different	800	left	upper	left	lower	0	757	ses-01	1176
sub-023	2	26	uncrossed	different	different	300	left	upper	right	lower	0	1935	ses-01	1177
sub-023	2	27	uncrossed	different	different	100	left	upper	right	lower	0	1073	ses-01	1178
sub-023	2	28	uncrossed	same	different	300	left	upper	left	lower	0	646	ses-01	1179
sub-023	2	29	uncrossed	different	different	100	left	upper	right	lower	1	911	ses-01	1180
sub-023	2	30	uncrossed	different	same	50	left	lower	right	lower	0	1711	ses-01	1181
sub-023	2	31	uncrossed	same	different	800	left	lower	left	upper	0	784	ses-01	1182
sub-023	2	32	uncrossed	same	different	300	right	upper	right	lower	0	753	ses-01	1183
sub-023	2	33	uncrossed	same	different	300	left	lower	left	upper	0	1349	ses-01	1184
sub-023	2	34	uncrossed	same	same	300	right	lower	right	lower	0	786	ses-01	1185
sub-023	2	35	uncrossed	same	different	100	left	upper	left	lower	0	661	ses-01	1186
sub-023	2	36	uncrossed	different	same	50	left	lower	right	lower	0	986	ses-01	1187
sub-023	2	37	uncrossed	same	same	100	left	lower	left	lower	0	703	ses-01	1188
sub-023	2	38	uncrossed	same	same	800	right	lower	right	lower	0	713	ses-01	1189
sub-023	2	39	uncrossed	same	same	100	right	lower	right	lower	0	572	ses-01	1190
sub-023	2	40	uncrossed	same	different	300	right	lower	right	upper	0	559	ses-01	1191
sub-023	2	41	uncrossed	same	different	800	left	upper	left	lower	0	855	ses-01	1192
sub-023	2	42	uncrossed	different	same	100	left	lower	right	lower	0	891	ses-01	1193
sub-023	2	43	uncrossed	different	same	100	right	lower	left	lower	1	786	ses-01	1194
sub-023	2	44	uncrossed	same	different	50	left	upper	left	lower	0	702	ses-01	1195
sub-023	2	45	uncrossed	different	same	800	left	lower	right	lower	0	682	ses-01	1196
sub-023	2	46	uncrossed	same	different	300	right	lower	right	upper	0	784	ses-01	1197
sub-023	2	47	uncrossed	different	same	800	left	lower	right	lower	0	799	ses-01	1198
sub-023	2	48	uncrossed	different	same	100	right	lower	left	lower	0	776	ses-01	1199
sub-023	2	49	uncrossed	different	different	800	right	upper	left	lower	0	1398	ses-01	1200
sub-023	2	50	uncrossed	different	different	50	left	upper	right	lower	0	1356	ses-01	1201
sub-023	2	51	uncrossed	same	different	800	left	lower	left	upper	0	855	ses-01	1202
sub-023	2	52	uncrossed	same	same	50	left	lower	left	lower	0	809	ses-01	1203
sub-023	2	53	uncrossed	same	same	50	right	lower	right	lower	0	1083	ses-01	1204
sub-023	2	54	uncrossed	same	same	100	left	lower	left	lower	0	666	ses-01	1205
sub-023	2	55	uncrossed	same	same	300	right	lower	right	lower	0	638	ses-01	1206
sub-023	2	56	uncrossed	different	different	300	left	upper	right	lower	0	858	ses-01	1207
sub-023	2	58	uncrossed	different	different	50	left	upper	right	lower	0	938	ses-01	1208
sub-023	2	59	uncrossed	different	different	100	right	lower	left	upper	0	695	ses-01	1209
sub-023	2	60	uncrossed	same	different	50	left	lower	left	upper	0	668	ses-01	1210
sub-023	2	61	uncrossed	different	same	50	right	lower	left	lower	0	1385	ses-01	1211
sub-023	2	62	uncrossed	different	different	100	left	lower	right	upper	0	917	ses-01	1212
sub-023	2	63	uncrossed	different	same	800	left	lower	right	lower	0	894	ses-01	1213
sub-023	2	64	uncrossed	same	same	50	right	lower	right	lower	0	791	ses-01	1214
sub-023	2	65	uncrossed	same	different	800	left	lower	left	upper	0	615	ses-01	1215
sub-023	2	66	uncrossed	different	different	50	right	upper	left	lower	0	994	ses-01	1216
sub-023	2	67	uncrossed	different	same	100	right	lower	left	lower	0	1472	ses-01	1217
sub-023	2	68	uncrossed	different	same	800	right	lower	left	lower	0	613	ses-01	1218
sub-023	2	69	uncrossed	same	different	800	right	upper	right	lower	0	1215	ses-01	1219
sub-023	2	70	uncrossed	same	different	300	left	upper	left	lower	1	842	ses-01	1220
