participant_id	run	trial_in_run	posture	stim_side	stim_segment	soa	tactor1side	tactor1segment	tactor2side	tactor2segment	response_correct	rt	session	trial
sub-015	1	1	crossed	same	different	300	left	lower	left	upper	1	1035	ses-01	1
sub-015	1	1	crossed	different	same	50	left	lower	right	lower	1	2026	ses-01	2
sub-015	1	2	crossed	same	different	50	right	lower	right	upper	1	735	ses-01	3
sub-015	1	2	crossed	same	same	300	left	lower	left	lower	1	768	ses-01	4
sub-015	1	3	crossed	different	different	50	right	upper	left	lower	1	1087	ses-01	5
sub-015	1	4	crossed	same	same	300	left	lower	left	lower	1	1117	ses-01	6
sub-015	1	4	crossed	same	same	100	right	lower	right	lower	1	856	ses-01	7
sub-015	1	5	crossed	same	same	50	right	lower	right	lower	1	572	ses-01	8
sub-015	1	5	crossed	different	different	50	right	upper	left	lower	1	1244	ses-01	9
sub-015	1	6	crossed	same	different	300	left	lower	left	upper	1	713	ses-01	10
sub-015	1	6	crossed	same	different	300	right	lower	right	upper	1	702	ses-01	11
sub-015	1	7	crossed	same	same	50	right	lower	right	lower	1	791	ses-01	12
sub-015	1	7	crossed	different	same	100	left	lower	right	lower	1	1304	ses-01	13
sub-015	1	8	crossed	same	different	100	left	lower	left	upper	1	586	ses-01	14
sub-015	1	9	crossed	different	same	50	left	lower	right	lower	1	838	ses-01	15
sub-015	1	9	crossed	same	same	300	right	lower	right	lower	1	745	ses-01	16
sub-015	1	10	crossed	same	same	300	right	lower	right	lower	1	828	ses-01	17
sub-015	1	10	crossed	same	different	100	left	lower	left	upper	1	588	ses-01	18
sub-015	1	11	crossed	different	same	50	left	lower	right	lower	1	1165	ses-01	19
sub-015	1	11	crossed	same	same	50	right	lower	right	lower	1	636	ses-01	20
sub-015	1	12	crossed	same	same	50	right	lower	right	lower	1	508	ses-01	21
sub-015	1	12	crossed	different	different	800	left	lower	right	upper	1	926	ses-01	22
sub-015	1	13	crossed	same	different	800	right	lower	right	upper	1	497	ses-01	23
sub-015	1	13	crossed	different	different	100	left	upper	right	lower	1	2103	ses-01	24
sub-015	1	14	crossed	different	different	800	right	upper	left	lower	1	840	ses-01	25
sub-015	1	14	crossed	same	same	800	right	lower	right	lower	1	916	ses-01	26
sub-015	1	15	crossed	different	same	50	right	lower	left	lower	1	1769	ses-01	27
sub-015	1	15	crossed	different	same	50	left	lower	right	lower	0	975	ses-01	28
sub-015	1	16	crossed	different	same	50	right	lower	left	lower	1	1004	ses-01	29
sub-015	1	16	crossed	same	different	800	left	upper	left	lower	1	1515	ses-01	30
sub-015	1	17	crossed	same	same	100	left	lower	left	lower	1	821	ses-01	31
sub-015	1	17	crossed	different	different	100	right	upper	left	lower	1	1668	ses-01	32
sub-015	1	18	crossed	different	same	100	left	lower	right	lower	1	831	ses-01	33
sub-015	1	18	crossed	different	same	800	left	lower	right	lower	1	787	ses-01	34
sub-015	1	19	crossed	different	different	100	right	upper	left	lower	1	1048	ses-01	35
sub-015	1	19	crossed	different	different	50	left	upper	right	lower	1	1051	ses-01	36
sub-015	1	20	crossed	different	different	300	right	lower	left	upper	1	2400	ses-01	37
sub-015	1	20	crossed	different	same	300	left	lower	right	lower	1	1011	ses-01	38
sub-015	1	21	crossed	same	same	50	right	lower	right	lower	1	687	ses-01	39
sub-015	1	21	crossed	same	different	800	right	upper	right	lower	1	1675	ses-01	40
sub-015	1	22	crossed	same	same	100	right	lower	right	lower	1	1140	ses-01	41
sub-015	1	22	crossed	different	different	300	right	upper	left	lower	1	1351	ses-01	42
sub-015	1	23	crossed	different	same	50	left	lower	right	lower	1	1217	ses-01	43
sub-015	1	23	crossed	same	same	100	right	lower	right	lower	1	755	ses-01	44
sub-015	1	24	crossed	different	same	800	right	lower	left	lower	1	1159	ses-01	45
sub-015	1	24	crossed	different	same	300	right	lower	left	lower	1	1806	ses-01	46
sub-015	1	25	crossed	same	same	300	left	lower	left	lower	1	730	ses-01	47
sub-015	1	25	crossed	same	different	800	right	lower	right	upper	1	723	ses-01	48
sub-015	1	26	crossed	same	different	100	right	upper	right	lower	1	722	ses-01	49
sub-015	1	26	crossed	different	different	300	right	lower	left	upper	0	901	ses-01	50
sub-015	1	27	crossed	same	same	50	right	lower	right	lower	1	678	ses-01	51
sub-015	1	27	crossed	different	same	50	right	lower	left	lower	1	2889	ses-01	52
sub-015	1	28	crossed	different	different	800	right	lower	left	upper	1	788	ses-01	53
sub-015	1	28	crossed	same	same	100	right	lower	right	lower	1	1080	ses-01	54
sub-015	1	29	crossed	different	different	300	left	upper	right	lower	1	1827	ses-01	55
sub-015	1	29	crossed	different	same	300	left	lower	right	lower	1	1020	ses-01	56
sub-015	1	30	crossed	same	same	800	right	lower	right	lower	1	1053	ses-01	57
sub-015	1	30	crossed	same	same	800	right	lower	right	lower	1	718	ses-01	58
sub-015	1	31	crossed	different	same	50	left	lower	right	lower	1	2425	ses-01	59
sub-015	1	31	crossed	same	different	800	right	upper	right	lower	1	1185	ses-01	60
sub-015	1	32	crossed	different	different	300	left	upper	right	lower	1	1043	ses-01	61
sub-015	1	32	crossed	same	different	800	right	lower	right	upper	1	1239	ses-01	62
sub-015	1	33	crossed	different	different	300	left	lower	right	upper	1	919	ses-01	63
sub-015	1	33	crossed	different	same	300	right	lower	left	lower	1	1132	ses-01	64
sub-015	1	34	crossed	different	same	300	left	lower	right	lower	1	875	ses-01	65
sub-015	1	34	crossed	same	same	50	left	lower	left	lower	1	768	ses-01	66
sub-015	1	35	crossed	different	different	800	left	upper	right	lower	1	678	ses-01	67
sub-015	1	35	crossed	same	different	800	right	upper	right	lower	1	753	ses-01	68
sub-015	1	36	crossed	different	different	800	left	upper	right	lower	1	656	ses-01	69
sub-015	1	36	crossed	same	same	800	right	lower	right	lower	1	799	ses-01	70
sub-015	1	37	crossed	different	different	300	right	upper	left	lower	1	1245	ses-01	71
sub-015	1	37	crossed	different	different	100	left	upper	right	lower	1	725	ses-01	72
sub-015	1	38	crossed	different	different	100	right	lower	left	upper	1	1013	ses-01	73
sub-015	1	38	crossed	different	different	300	left	upper	right	lower	1	552	ses-01	74
sub-015	1	39	crossed	different	same	800	right	lower	left	lower	1	866	ses-01	75
sub-015	1	39	crossed	same	same	800	right	lower	right	lower	1	974	ses-01	76
sub-015	1	40	crossed	different	same	300	left	lower	right	lower	1	868	ses-01	77
sub-015	1	41	crossed	different	same	800	left	lower	right	lower	1	565	ses-01	78
sub-015	1	41	crossed	same	different	300	left	upper	left	lower	1	673	ses-01	79
sub-015	1	42	crossed	different	different	50	right	lower	left	upper	1	744	ses-01	80
sub-015	1	42	crossed	same	same	50	left	lower	left	lower	1	625	ses-01	81
sub-015	1	43	crossed	different	same	100	left	lower	right	lower	1	842	ses-01	82
sub-015	1	43	crossed	same	different	800	left	lower	left	upper	1	1287	ses-01	83
sub-015	1	44	crossed	different	same	50	left	lower	right	lower	1	1056	ses-01	84
sub-015	1	44	crossed	same	different	300	right	upper	right	lower	0	689	ses-01	85
sub-015	1	45	crossed	different	different	50	right	lower	left	upper	1	627	ses-01	86
sub-015	1	45	crossed	different	different	300	right	upper	left	lower	1	1584	ses-01	87
sub-015	1	46	crossed	different	same	50	left	lower	right	lower	1	1037	ses-01	88
sub-015	1	46	crossed	same	same	100	left	lower	left	lower	1	817	ses-01	89
sub-015	1	47	crossed	different	different	100	left	lower	right	upper	1	659	ses-01	90
sub-015	1	47	crossed	same	same	300	left	lower	left	lower	1	663	ses-01	91
sub-015	1	48	crossed	different	different	50	left	upper	right	lower	1	661	ses-01	92
sub-015	1	48	crossed	different	different	800	right	lower	left	upper	1	636	ses-01	93
sub-015	1	49	crossed	different	different	50	left	lower	right	upper	1	589	ses-01	94
sub-015	1	49	crossed	different	different	100	left	lower	right	upper	1	942	ses-01	95
sub-015	1	50	crossed	different	same	100	right	lower	left	lower	1	669	ses-01	96
sub-015	1	50	crossed	same	same	100	left	lower	left	lower	1	621	ses-01	97
sub-015	1	51	crossed	different	same	100	left	lower	right	lower	1	578	ses-01	98
sub-015	1	51	crossed	same	different	100	left	lower	left	upper	1	702	ses-01	99
sub-015	1	52	crossed	same	same	50	left	lower	left	lower	1	809	ses-01	100
sub-015	1	52	crossed	different	same	300	left	lower	right	lower	1	563	ses-01	101
sub-015	1	53	crossed	same	same	800	left	lower	left	lower	1	944	ses-01	102
sub-015	1	53	crossed	same	same	100	right	lower	right	lower	1	529	ses-01	103
sub-015	1	54	crossed	different	different	300	left	upper	right	lower	1	776	ses-01	104
sub-015	1	54	crossed	different	different	100	right	lower	left	upper	1	577	ses-01	105
sub-015	1	55	crossed	different	different	300	left	lower	right	upper	1	896	ses-01	106
sub-015	1	55	crossed	different	same	800	left	lower	right	lower	1	933	ses-01	107
sub-015	1	56	crossed	different	different	50	left	lower	right	upper	1	1048	ses-01	108
sub-015	1	56	crossed	different	same	100	left	lower	right	lower	1	815	ses-01	109
sub-015	1	57	crossed	same	same	300	right	lower	right	lower	1	1176	ses-01	110
sub-015	1	57	crossed	same	same	100	right	lower	right	lower	1	901	ses-01	111
sub-015	1	58	crossed	same	same	50	right	lower	right	lower	1	786	ses-01	112
sub-015	1	58	crossed	same	different	50	left	lower	left	upper	1	799	ses-01	113
sub-015	1	59	crossed	same	different	50	left	lower	left	upper	1	986	ses-01	114
sub-015	1	59	crossed	different	same	300	left	lower	right	lower	1	1839	ses-01	115
sub-015	1	60	crossed	different	same	800	right	lower	left	lower	1	932	ses-01	116
sub-015	1	60	crossed	different	different	300	right	lower	left	upper	1	1130	ses-01	117
sub-015	1	61	crossed	same	different	50	right	lower	right	upper	1	647	ses-01	118
sub-015	1	61	crossed	different	different	100	right	upper	left	lower	1	1789	ses-01	119
sub-015	1	62	crossed	different	same	300	right	lower	left	lower	1	1474	ses-01	120
sub-015	1	62	crossed	different	same	100	right	lower	left	lower	0	1429	ses-01	121
sub-015	1	63	crossed	different	same	800	left	lower	right	lower	1	1153	ses-01	122
sub-015	1	63	crossed	different	different	800	left	lower	right	upper	1	918	ses-01	123
sub-015	1	64	crossed	same	different	800	right	upper	right	lower	1	840	ses-01	124
sub-015	1	64	crossed	same	same	50	left	lower	left	lower	1	1000	ses-01	125
sub-015	1	65	crossed	same	different	300	right	lower	right	upper	1	526	ses-01	126
sub-015	1	65	crossed	same	different	100	left	lower	left	upper	1	830	ses-01	127
sub-015	1	66	crossed	different	different	100	left	upper	right	lower	1	1002	ses-01	128
sub-015	1	66	crossed	same	same	50	right	lower	right	lower	1	621	ses-01	129
sub-015	1	67	crossed	different	same	300	left	lower	right	lower	1	883	ses-01	130
sub-015	1	67	crossed	different	same	300	right	lower	left	lower	1	676	ses-01	131
sub-015	1	68	crossed	same	different	100	left	upper	left	lower	1	669	ses-01	132
sub-015	1	68	crossed	different	different	300	left	lower	right	upper	1	779	ses-01	133
sub-015	1	69	crossed	same	different	800	right	lower	right	upper	1	1506	ses-01	134
sub-015	1	69	crossed	same	same	300	left	lower	left	lower	1	1221	ses-01	135
sub-015	1	70	crossed	different	different	300	right	lower	left	upper	1	648	ses-01	136
sub-015	1	70	crossed	same	different	800	left	upper	left	lower	1	983	ses-01	137
sub-015	1	71	crossed	different	different	50	right	upper	left	lower	1	1301	ses-01	138
sub-015	1	71	crossed	same	same	800	right	lower	right	lower	1	1380	ses-01	139
sub-015	1	72	crossed	same	different	800	left	lower	left	upper	1	836	ses-01	140
sub-015	1	72	crossed	same	same	100	left	lower	left	lower	1	692	ses-01	141
sub-015	1	73	crossed	different	same	100	right	lower	left	lower	1	831	ses-01	142
sub-015	1	73	crossed	same	different	100	right	lower	right	upper	1	685	ses-01	143
sub-015	1	74	crossed	same	same	300	left	lower	left	lower	1	827	ses-01	144
sub-015	1	74	crossed	same	different	50	left	upper	left	lower	1	654	ses-01	145
sub-015	1	75	crossed	different	different	300	right	upper	left	lower	1	1301	ses-01	146
sub-015	1	75	crossed	different	same	100	right	lower	left	lower	1	764	ses-01	147
sub-015	1	76	crossed	different	same	800	left	lower	right	lower	1	717	ses-01	148
sub-015	1	76	crossed	same	same	800	left	lower	left	lower	1	1179	ses-01	149
sub-015	1	77	crossed	different	different	800	left	lower	right	upper	1	760	ses-01	150
sub-015	1	77	crossed	different	different	300	right	lower	left	upper	1	961	ses-01	151
sub-015	1	78	crossed	same	different	100	right	lower	right	upper	1	599	ses-01	152
sub-015	1	78	crossed	same	same	100	right	lower	right	lower	1	851	ses-01	153
sub-015	1	79	crossed	same	same	100	left	lower	left	lower	1	622	ses-01	154
sub-015	1	79	crossed	same	different	50	right	upper	right	lower	1	726	ses-01	155
sub-015	1	80	crossed	different	same	800	right	lower	left	lower	1	709	ses-01	156
sub-015	1	80	crossed	different	same	800	right	lower	left	lower	1	694	ses-01	157
sub-015	1	81	crossed	different	same	800	left	lower	right	lower	1	650	ses-01	158
sub-015	1	81	crossed	same	same	800	left	lower	left	lower	1	854	ses-01	159
sub-015	1	82	crossed	different	different	800	right	lower	left	upper	1	656	ses-01	160
sub-015	1	82	crossed	different	same	800	left	lower	right	lower	1	685	ses-01	161
sub-015	1	83	crossed	different	different	50	left	upper	right	lower	1	690	ses-01	162
sub-015	1	83	crossed	same	different	300	right	lower	right	upper	1	704	ses-01	163
sub-015	1	84	crossed	same	same	100	left	lower	left	lower	1	1397	ses-01	164
sub-015	1	84	crossed	different	same	800	right	lower	left	lower	1	862	ses-01	165
sub-015	1	85	crossed	different	same	300	right	lower	left	lower	1	1018	ses-01	166
sub-015	1	85	crossed	same	different	50	right	upper	right	lower	1	650	ses-01	167
sub-015	1	86	crossed	different	different	800	right	upper	left	lower	1	743	ses-01	168
sub-015	1	86	crossed	same	same	50	left	lower	left	lower	1	740	ses-01	169
sub-015	1	87	crossed	same	different	100	right	lower	right	upper	1	612	ses-01	170
sub-015	1	87	crossed	different	same	100	left	lower	right	lower	1	974	ses-01	171
sub-015	1	88	crossed	same	different	100	left	upper	left	lower	1	887	ses-01	172
sub-015	1	88	crossed	different	different	50	right	lower	left	upper	1	694	ses-01	173
sub-015	1	89	crossed	different	different	100	right	lower	left	upper	1	606	ses-01	174
sub-015	1	89	crossed	different	same	50	left	lower	right	lower	1	678	ses-01	175
sub-015	1	90	crossed	different	different	50	left	upper	right	lower	1	566	ses-01	176
sub-015	1	90	crossed	same	different	800	left	lower	left	upper	1	1167	ses-01	177
sub-015	1	91	crossed	same	same	50	right	lower	right	lower	1	661	ses-01	178
sub-015	1	91	crossed	different	different	300	left	upper	right	lower	1	601	ses-01	179
sub-015	1	92	crossed	same	same	300	right	lower	right	lower	1	681	ses-01	180
sub-015	1	92	crossed	same	different	100	left	upper	left	lower	1	631	ses-01	181
sub-015	1	93	crossed	same	same	800	left	lower	left	lower	1	753	ses-01	182
sub-015	1	93	crossed	same	different	300	left	upper	left	lower	1	687	ses-01	183
sub-015	1	94	crossed	same	same	800	right	lower	right	lower	1	1236	ses-01	184
sub-015	1	94	crossed	same	same	50	right	lower	right	lower	1	686	ses-01	185
sub-015	1	95	crossed	same	same	50	right	lower	right	lower	1	614	ses-01	186
sub-015	1	95	crossed	same	same	800	right	lower	right	lower	1	778	ses-01	187
sub-015	1	96	crossed	same	same	100	left	lower	left	lower	1	568	ses-01	188
sub-015	1	96	crossed	same	different	100	left	lower	left	upper	1	671	ses-01	189
sub-015	1	97	crossed	same	same	50	right	lower	right	lower	1	689	ses-01	190
sub-015	1	97	crossed	same	different	300	right	lower	right	upper	1	601	ses-01	191
sub-015	1	98	crossed	same	different	300	right	upper	right	lower	1	573	ses-01	192
sub-015	1	98	crossed	same	different	300	right	upper	right	lower	1	574	ses-01	193
sub-015	1	99	crossed	different	same	100	right	lower	left	lower	1	678	ses-01	194
sub-015	1	99	crossed	different	different	800	right	lower	left	upper	1	893	ses-01	195
sub-015	1	100	crossed	same	different	100	right	lower	right	upper	1	637	ses-01	196
sub-015	1	100	crossed	same	same	50	left	lower	left	lower	1	627	ses-01	197
sub-015	1	101	crossed	different	different	800	right	lower	left	upper	1	899	ses-01	198
sub-015	1	101	crossed	same	same	800	right	lower	right	lower	1	977	ses-01	199
sub-015	1	102	crossed	same	different	800	right	lower	right	upper	1	494	ses-01	200
sub-015	1	102	crossed	different	different	800	left	lower	right	upper	1	860	ses-01	201
sub-015	1	103	crossed	different	same	300	left	lower	right	lower	1	1391	ses-01	202
sub-015	1	103	crossed	same	different	50	left	lower	left	upper	1	593	ses-01	203
sub-015	1	104	crossed	same	same	100	left	lower	left	lower	1	492	ses-01	204
sub-015	1	104	crossed	same	different	100	right	lower	right	upper	1	669	ses-01	205
sub-015	1	105	crossed	different	different	100	right	lower	left	upper	1	742	ses-01	206
sub-015	1	105	crossed	same	different	100	right	lower	right	upper	1	420	ses-01	207
sub-015	1	106	crossed	same	different	50	left	lower	left	upper	1	700	ses-01	208
sub-015	1	106	crossed	same	different	100	right	upper	right	lower	1	408	ses-01	209
sub-015	1	107	crossed	same	same	50	left	lower	left	lower	1	453	ses-01	210
sub-015	1	107	crossed	same	different	100	left	upper	left	lower	1	1234	ses-01	211
sub-015	1	108	crossed	different	same	800	right	lower	left	lower	1	1071	ses-01	212
sub-015	1	108	crossed	different	same	100	left	lower	right	lower	1	693	ses-01	213
sub-015	1	109	crossed	different	same	50	right	lower	left	lower	1	747	ses-01	214
sub-015	1	109	crossed	different	different	300	left	lower	right	upper	1	532	ses-01	215
sub-015	1	110	crossed	same	different	50	right	lower	right	upper	1	631	ses-01	216
sub-015	1	110	crossed	different	same	50	right	lower	left	lower	1	1193	ses-01	217
sub-015	1	111	crossed	different	different	300	left	upper	right	lower	1	995	ses-01	218
sub-015	1	111	crossed	same	different	800	left	lower	left	upper	1	629	ses-01	219
sub-015	1	112	crossed	same	same	800	left	lower	left	lower	1	889	ses-01	220
sub-015	1	112	crossed	different	same	300	right	lower	left	lower	1	798	ses-01	221
sub-015	1	113	crossed	same	different	800	left	upper	left	lower	1	902	ses-01	222
sub-015	1	113	crossed	same	same	300	right	lower	right	lower	1	716	ses-01	223
sub-015	1	114	crossed	different	same	50	right	lower	left	lower	1	690	ses-01	224
sub-015	1	114	crossed	same	same	50	left	lower	left	lower	1	604	ses-01	225
sub-015	1	115	crossed	same	same	300	left	lower	left	lower	1	504	ses-01	226
sub-015	1	115	crossed	same	different	100	right	lower	right	upper	1	647	ses-01	227
sub-015	1	116	crossed	same	different	100	right	upper	right	lower	1	512	ses-01	228
sub-015	1	116	crossed	different	different	800	right	upper	left	lower	1	1088	ses-01	229
sub-015	1	117	crossed	same	different	800	left	upper	left	lower	1	673	ses-01	230
sub-015	1	117	crossed	same	same	100	left	lower	left	lower	1	539	ses-01	231
sub-015	1	118	crossed	same	different	100	left	lower	left	upper	1	507	ses-01	232
sub-015	1	118	crossed	different	different	50	right	lower	left	upper	1	603	ses-01	233
sub-015	1	119	crossed	different	same	800	left	lower	right	lower	1	680	ses-01	234
sub-015	1	119	crossed	different	same	300	left	lower	right	lower	1	644	ses-01	235
sub-015	1	120	crossed	same	same	50	left	lower	left	lower	1	572	ses-01	236
sub-015	1	120	crossed	same	same	50	right	lower	right	lower	1	545	ses-01	237
sub-015	1	121	crossed	same	different	100	left	lower	left	upper	1	586	ses-01	238
sub-015	1	121	crossed	different	different	100	right	upper	left	lower	1	852	ses-01	239
sub-015	1	122	crossed	different	same	100	right	lower	left	lower	1	1630	ses-01	240
sub-015	1	122	crossed	different	same	800	left	lower	right	lower	1	656	ses-01	241
sub-015	1	123	crossed	same	different	300	right	upper	right	lower	1	1295	ses-01	242
sub-015	1	123	crossed	different	same	100	left	lower	right	lower	1	636	ses-01	243
sub-015	1	124	crossed	different	same	50	right	lower	left	lower	1	1205	ses-01	244
sub-015	1	124	crossed	different	different	300	right	upper	left	lower	1	718	ses-01	245
sub-015	1	125	crossed	same	same	300	left	lower	left	lower	1	708	ses-01	246
sub-015	1	125	crossed	same	same	300	right	lower	right	lower	1	992	ses-01	247
sub-015	1	126	crossed	different	same	50	right	lower	left	lower	1	760	ses-01	248
sub-015	1	126	crossed	same	same	100	left	lower	left	lower	1	502	ses-01	249
sub-015	1	127	crossed	different	same	50	left	lower	right	lower	1	650	ses-01	250
sub-015	1	127	crossed	same	same	800	right	lower	right	lower	1	1245	ses-01	251
sub-015	1	128	crossed	same	different	100	left	upper	left	lower	1	919	ses-01	252
sub-015	1	128	crossed	different	different	50	right	upper	left	lower	1	1060	ses-01	253
sub-015	1	129	crossed	different	same	800	right	lower	left	lower	1	546	ses-01	254
sub-015	1	129	crossed	different	different	50	right	upper	left	lower	1	648	ses-01	255
sub-015	1	130	crossed	same	same	300	left	lower	left	lower	1	904	ses-01	256
sub-015	1	130	crossed	same	same	50	right	lower	right	lower	1	674	ses-01	257
sub-015	1	131	crossed	different	same	300	right	lower	left	lower	1	880	ses-01	258
sub-015	1	131	crossed	different	same	300	left	lower	right	lower	1	680	ses-01	259
sub-015	1	132	crossed	same	different	300	right	upper	right	lower	1	694	ses-01	260
sub-015	1	132	crossed	different	same	50	left	lower	right	lower	1	981	ses-01	261
sub-015	1	133	crossed	different	different	100	left	upper	right	lower	1	653	ses-01	262
sub-015	1	133	crossed	different	same	100	right	lower	left	lower	1	1804	ses-01	263
sub-015	1	134	crossed	different	same	100	left	lower	right	lower	1	577	ses-01	264
sub-015	1	134	crossed	same	different	50	left	lower	left	upper	1	635	ses-01	265
sub-015	1	135	crossed	different	different	50	left	upper	right	lower	1	571	ses-01	266
sub-015	1	135	crossed	same	different	50	right	lower	right	upper	1	558	ses-01	267
sub-015	1	136	crossed	different	different	300	left	lower	right	upper	1	712	ses-01	268
sub-015	1	136	crossed	different	same	800	right	lower	left	lower	1	529	ses-01	269
sub-015	1	137	crossed	same	different	800	right	lower	right	upper	1	617	ses-01	270
sub-015	1	137	crossed	different	same	300	left	lower	right	lower	1	612	ses-01	271
sub-015	1	138	crossed	different	different	300	left	lower	right	upper	1	775	ses-01	272
sub-015	1	139	crossed	same	same	300	right	lower	right	lower	1	1936	ses-01	273
sub-015	1	139	crossed	same	same	800	right	lower	right	lower	1	1575	ses-01	274
sub-015	1	140	crossed	same	different	100	right	upper	right	lower	1	599	ses-01	275
sub-015	1	140	crossed	different	same	50	right	lower	left	lower	1	771	ses-01	276
sub-015	1	141	crossed	same	same	50	left	lower	left	lower	1	887	ses-01	277
sub-015	1	141	crossed	same	same	100	right	lower	right	lower	1	1066	ses-01	278
sub-015	1	142	crossed	different	same	300	left	lower	right	lower	1	749	ses-01	279
sub-015	1	142	crossed	same	different	100	left	upper	left	lower	1	734	ses-01	280
sub-015	1	143	crossed	different	same	100	right	lower	left	lower	1	2548	ses-01	281
sub-015	1	143	crossed	same	same	800	left	lower	left	lower	1	681	ses-01	282
sub-015	1	144	crossed	same	different	100	left	lower	left	upper	1	626	ses-01	283
sub-015	1	144	crossed	different	different	50	left	lower	right	upper	1	658	ses-01	284
sub-015	1	145	crossed	same	different	800	left	lower	left	upper	1	782	ses-01	285
sub-015	1	145	crossed	different	different	800	left	upper	right	lower	1	1151	ses-01	286
sub-015	1	146	crossed	same	same	100	left	lower	left	lower	1	465	ses-01	287
sub-015	1	146	crossed	same	same	300	left	lower	left	lower	0	1281	ses-01	288
sub-015	1	147	crossed	different	same	50	left	lower	right	lower	1	1097	ses-01	289
sub-015	1	147	crossed	same	same	300	left	lower	left	lower	1	462	ses-01	290
sub-015	1	148	crossed	different	different	50	right	lower	left	upper	1	696	ses-01	291
sub-015	1	148	crossed	same	same	100	right	lower	right	lower	1	567	ses-01	292
sub-015	1	149	crossed	different	different	100	left	upper	right	lower	1	967	ses-01	293
sub-015	1	149	crossed	same	different	300	left	lower	left	upper	1	521	ses-01	294
sub-015	1	150	crossed	different	different	100	right	lower	left	upper	1	663	ses-01	295
sub-015	1	150	crossed	same	same	300	left	lower	left	lower	1	694	ses-01	296
sub-015	1	151	crossed	same	different	300	right	upper	right	lower	1	541	ses-01	297
sub-015	1	151	crossed	same	different	800	left	lower	left	upper	1	1437	ses-01	298
sub-015	1	152	crossed	different	same	800	right	lower	left	lower	1	813	ses-01	299
sub-015	1	152	crossed	same	same	100	left	lower	left	lower	1	817	ses-01	300
sub-015	1	153	crossed	same	different	50	left	lower	left	upper	1	720	ses-01	301
sub-015	1	153	crossed	same	different	300	right	upper	right	lower	1	698	ses-01	302
sub-015	1	154	crossed	different	same	800	left	lower	right	lower	1	807	ses-01	303
sub-015	1	154	crossed	same	different	800	right	upper	right	lower	1	658	ses-01	304
sub-015	1	155	crossed	different	same	50	left	lower	right	lower	1	1198	ses-01	305
sub-015	1	155	crossed	different	different	800	right	lower	left	upper	0	1991	ses-01	306
sub-015	1	156	crossed	different	different	800	left	upper	right	lower	1	1402	ses-01	307
sub-015	1	156	crossed	same	same	800	right	lower	right	lower	1	767	ses-01	308
sub-015	1	157	crossed	different	same	800	left	lower	right	lower	1	690	ses-01	309
sub-015	1	157	crossed	same	different	50	right	upper	right	lower	1	579	ses-01	310
sub-015	1	158	crossed	different	same	50	right	lower	left	lower	1	762	ses-01	311
sub-015	1	158	crossed	different	different	50	right	upper	left	lower	1	857	ses-01	312
sub-015	1	159	crossed	same	different	300	right	upper	right	lower	1	771	ses-01	313
sub-015	1	159	crossed	different	different	50	left	upper	right	lower	1	976	ses-01	314
sub-015	1	160	crossed	different	different	800	right	upper	left	lower	1	1083	ses-01	315
sub-015	1	160	crossed	same	same	100	right	lower	right	lower	1	930	ses-01	316
sub-015	1	161	crossed	same	same	100	right	lower	right	lower	1	587	ses-01	317
sub-015	1	161	crossed	different	different	100	right	lower	left	upper	1	1065	ses-01	318
sub-015	1	162	crossed	same	different	50	right	lower	right	upper	1	717	ses-01	319
sub-015	1	162	crossed	different	same	100	left	lower	right	lower	1	609	ses-01	320
sub-015	1	163	crossed	same	different	100	left	lower	left	upper	1	471	ses-01	321
sub-015	1	163	crossed	different	same	100	left	lower	right	lower	1	761	ses-01	322
sub-015	1	164	crossed	same	different	50	left	lower	left	upper	1	479	ses-01	323
sub-015	1	164	crossed	same	different	300	left	upper	left	lower	1	1987	ses-01	324
sub-015	1	165	crossed	different	same	800	left	lower	right	lower	1	1121	ses-01	325
sub-015	1	165	crossed	different	same	300	right	lower	left	lower	1	660	ses-01	326
sub-015	1	166	crossed	different	different	100	right	upper	left	lower	1	1162	ses-01	327
sub-015	1	166	crossed	same	same	800	left	lower	left	lower	1	889	ses-01	328
sub-015	1	167	crossed	different	same	50	right	lower	left	lower	1	818	ses-01	329
sub-015	1	167	crossed	different	different	50	right	lower	left	upper	1	833	ses-01	330
sub-015	1	168	crossed	same	different	50	left	upper	left	lower	1	756	ses-01	331
sub-015	1	168	crossed	different	different	50	right	upper	left	lower	1	635	ses-01	332
sub-015	1	169	crossed	different	same	800	right	lower	left	lower	1	748	ses-01	333
sub-015	1	169	crossed	different	different	300	right	upper	left	lower	1	567	ses-01	334
sub-015	1	170	crossed	different	same	800	left	lower	right	lower	1	832	ses-01	335
sub-015	1	170	crossed	different	different	50	left	upper	right	lower	1	655	ses-01	336
sub-015	1	171	crossed	different	same	50	right	lower	left	lower	1	970	ses-01	337
sub-015	1	171	crossed	different	same	300	left	lower	right	lower	1	728	ses-01	338
sub-015	1	172	crossed	different	same	100	right	lower	left	lower	1	637	ses-01	339
sub-015	1	172	crossed	same	same	50	left	lower	left	lower	1	693	ses-01	340
sub-015	1	173	crossed	different	same	800	left	lower	right	lower	1	567	ses-01	341
sub-015	1	173	crossed	same	same	100	right	lower	right	lower	1	539	ses-01	342
sub-015	1	174	crossed	same	different	800	left	upper	left	lower	1	1905	ses-01	343
sub-015	1	174	crossed	different	same	300	left	lower	right	lower	1	700	ses-01	344
sub-015	1	175	crossed	same	different	50	left	lower	left	upper	1	498	ses-01	345
sub-015	1	175	crossed	same	same	100	right	lower	right	lower	1	685	ses-01	346
sub-015	1	176	crossed	different	different	100	right	lower	left	upper	1	687	ses-01	347
sub-015	1	176	crossed	same	different	50	right	upper	right	lower	1	484	ses-01	348
sub-015	1	177	crossed	different	different	100	left	upper	right	lower	1	602	ses-01	349
sub-015	1	177	crossed	different	same	100	right	lower	left	lower	1	468	ses-01	350
sub-015	1	178	crossed	same	different	300	right	lower	right	upper	1	579	ses-01	351
sub-015	1	178	crossed	different	different	50	right	lower	left	upper	1	628	ses-01	352
sub-015	1	179	crossed	different	same	800	left	lower	right	lower	1	1068	ses-01	353
sub-015	1	179	crossed	same	same	100	left	lower	left	lower	1	569	ses-01	354
sub-015	1	180	crossed	different	same	300	right	lower	left	lower	1	1351	ses-01	355
sub-015	1	180	crossed	same	same	50	right	lower	right	lower	1	636	ses-01	356
sub-015	1	181	crossed	different	same	50	right	lower	left	lower	1	898	ses-01	357
sub-015	1	181	crossed	different	same	100	left	lower	right	lower	1	889	ses-01	358
sub-015	1	182	crossed	same	different	300	left	upper	left	lower	1	891	ses-01	359
sub-015	1	182	crossed	same	different	100	left	lower	left	upper	1	630	ses-01	360
sub-015	1	183	crossed	same	same	100	left	lower	left	lower	1	809	ses-01	361
sub-015	1	183	crossed	different	same	800	right	lower	left	lower	1	1688	ses-01	362
sub-015	1	184	crossed	different	same	300	left	lower	right	lower	1	653	ses-01	363
sub-015	1	184	crossed	same	same	300	right	lower	right	lower	1	624	ses-01	364
sub-015	1	185	crossed	same	same	800	right	lower	right	lower	1	613	ses-01	365
sub-015	1	185	crossed	different	same	300	right	lower	left	lower	1	649	ses-01	366
sub-015	1	186	crossed	different	different	300	left	lower	right	upper	1	616	ses-01	367
sub-015	1	186	crossed	same	different	50	left	upper	left	lower	1	581	ses-01	368
sub-015	1	187	crossed	different	same	800	left	lower	right	lower	1	987	ses-01	369
sub-015	1	187	crossed	different	different	800	left	upper	right	lower	1	776	ses-01	370
sub-015	1	188	crossed	same	same	300	right	lower	right	lower	1	729	ses-01	371
sub-015	1	188	crossed	different	same	800	left	lower	right	lower	1	588	ses-01	372
sub-015	1	189	crossed	same	same	50	left	lower	left	lower	1	622	ses-01	373
sub-015	1	189	crossed	different	different	800	left	lower	right	upper	1	700	ses-01	374
sub-015	1	190	crossed	same	different	50	right	lower	right	upper	1	613	ses-01	375
sub-015	1	190	crossed	different	different	800	left	upper	right	lower	1	703	ses-01	376
sub-015	1	191	crossed	same	different	100	right	upper	right	lower	1	723	ses-01	377
sub-015	1	191	crossed	same	different	50	left	lower	left	upper	1	612	ses-01	378
sub-015	1	192	crossed	same	different	300	right	lower	right	upper	1	674	ses-01	379
sub-015	1	192	crossed	different	same	800	right	lower	left	lower	1	676	ses-01	380
sub-015	1	193	crossed	different	different	100	right	upper	left	lower	1	1820	ses-01	381
sub-015	1	193	crossed	same	different	50	left	upper	left	lower	1	1004	ses-01	382
sub-015	1	194	crossed	different	different	100	right	upper	left	lower	1	659	ses-01	383
sub-015	1	194	crossed	same	same	300	right	lower	right	lower	1	881	ses-01	384
sub-015	1	195	crossed	same	different	300	right	lower	right	upper	1	584	ses-01	385
sub-015	1	195	crossed	same	different	50	left	lower	left	upper	1	584	ses-01	386
sub-015	1	196	crossed	same	different	800	right	upper	right	lower	1	572	ses-01	387
sub-015	1	196	crossed	same	different	100	right	lower	right	upper	1	613	ses-01	388
sub-015	1	197	crossed	same	same	50	left	lower	left	lower	1	675	ses-01	389
sub-015	1	197	crossed	different	different	50	right	lower	left	upper	1	1154	ses-01	390
sub-015	1	198	crossed	different	same	50	left	lower	right	lower	1	999	ses-01	391
sub-015	1	198	crossed	different	same	50	left	lower	right	lower	1	590	ses-01	392
sub-015	1	199	crossed	same	different	50	right	upper	right	lower	1	531	ses-01	393
sub-015	1	199	crossed	same	different	800	right	lower	right	upper	1	788	ses-01	394
sub-015	1	200	crossed	same	same	300	right	lower	right	lower	1	856	ses-01	395
sub-015	1	200	crossed	same	different	800	left	lower	left	upper	1	1155	ses-01	396
sub-015	1	201	crossed	different	different	50	left	upper	right	lower	1	602	ses-01	397
sub-015	1	201	crossed	same	different	300	left	lower	left	upper	1	612	ses-01	398
sub-015	1	202	crossed	same	same	50	left	lower	left	lower	1	500	ses-01	399
sub-015	1	202	crossed	same	different	800	right	upper	right	lower	1	636	ses-01	400
sub-015	1	203	crossed	same	different	100	right	upper	right	lower	1	461	ses-01	401
sub-015	1	203	crossed	different	same	50	right	lower	left	lower	1	2027	ses-01	402
sub-015	1	204	crossed	same	different	800	left	upper	left	lower	1	628	ses-01	403
sub-015	1	204	crossed	different	same	800	right	lower	left	lower	1	624	ses-01	404
sub-015	1	205	crossed	different	same	300	right	lower	left	lower	1	616	ses-01	405
sub-015	1	205	crossed	different	different	800	right	upper	left	lower	1	740	ses-01	406
sub-015	1	206	crossed	different	different	300	left	upper	right	lower	1	794	ses-01	407
sub-015	1	206	crossed	same	different	100	right	upper	right	lower	1	578	ses-01	408
sub-015	1	207	crossed	same	same	50	right	lower	right	lower	1	808	ses-01	409
sub-015	1	207	crossed	same	different	800	right	lower	right	upper	1	684	ses-01	410
sub-015	1	208	crossed	different	same	300	left	lower	right	lower	1	720	ses-01	411
sub-015	1	208	crossed	same	different	50	right	upper	right	lower	1	507	ses-01	412
sub-015	1	209	crossed	same	same	800	left	lower	left	lower	1	674	ses-01	413
sub-015	1	209	crossed	different	different	50	right	upper	left	lower	1	694	ses-01	414
sub-015	1	210	crossed	same	different	800	left	upper	left	lower	1	874	ses-01	415
sub-015	1	210	crossed	different	different	50	left	upper	right	lower	1	618	ses-01	416
sub-015	1	211	crossed	different	different	50	left	lower	right	upper	1	1232	ses-01	417
sub-015	1	211	crossed	different	same	100	left	lower	right	lower	1	565	ses-01	418
sub-015	1	212	crossed	different	different	100	left	lower	right	upper	1	1122	ses-01	419
sub-015	1	212	crossed	different	same	300	left	lower	right	lower	1	651	ses-01	420
sub-015	1	213	crossed	same	same	300	left	lower	left	lower	1	801	ses-01	421
sub-015	1	213	crossed	same	same	100	left	lower	left	lower	1	652	ses-01	422
sub-015	1	214	crossed	same	same	50	left	lower	left	lower	1	495	ses-01	423
sub-015	1	214	crossed	different	same	100	left	lower	right	lower	1	681	ses-01	424
sub-015	1	215	crossed	same	same	300	left	lower	left	lower	1	1084	ses-01	425
sub-015	1	215	crossed	different	same	800	right	lower	left	lower	1	700	ses-01	426
sub-015	1	216	crossed	different	same	800	right	lower	left	lower	0	1189	ses-01	427
sub-015	1	216	crossed	different	same	100	right	lower	left	lower	1	619	ses-01	428
sub-015	1	217	crossed	different	different	100	right	upper	left	lower	1	789	ses-01	429
sub-015	1	217	crossed	different	same	800	right	lower	left	lower	1	772	ses-01	430
sub-015	1	218	crossed	different	same	800	left	lower	right	lower	1	662	ses-01	431
sub-015	1	218	crossed	same	same	800	left	lower	left	lower	1	711	ses-01	432
sub-015	1	219	crossed	different	same	800	left	lower	right	lower	1	1056	ses-01	433
sub-015	1	219	crossed	same	same	50	right	lower	right	lower	1	689	ses-01	434
sub-015	1	220	crossed	different	different	50	left	lower	right	upper	1	1143	ses-01	435
sub-015	1	220	crossed	same	same	100	right	lower	right	lower	1	663	ses-01	436
sub-015	1	221	crossed	same	same	100	left	lower	left	lower	1	559	ses-01	437
sub-015	1	221	crossed	different	different	300	left	lower	right	upper	1	645	ses-01	438
sub-015	1	222	crossed	same	same	800	left	lower	left	lower	1	698	ses-01	439
sub-015	1	222	crossed	same	different	800	left	lower	left	upper	1	842	ses-01	440
sub-015	1	223	crossed	same	different	800	left	lower	left	upper	1	521	ses-01	441
sub-015	1	223	crossed	same	different	100	right	upper	right	lower	1	511	ses-01	442
sub-015	1	224	crossed	different	same	50	right	lower	left	lower	1	586	ses-01	443
sub-015	1	224	crossed	different	same	300	left	lower	right	lower	1	869	ses-01	444
sub-015	1	225	crossed	different	different	100	right	upper	left	lower	1	614	ses-01	445
sub-015	1	225	crossed	same	same	800	right	lower	right	lower	1	797	ses-01	446
sub-015	1	226	crossed	different	same	100	right	lower	left	lower	1	519	ses-01	447
sub-015	1	226	crossed	same	different	800	right	lower	right	upper	1	588	ses-01	448
sub-015	1	227	crossed	different	different	800	left	lower	right	upper	1	662	ses-01	449
sub-015	1	227	crossed	same	different	300	left	upper	left	lower	1	710	ses-01	450
sub-015	1	228	crossed	different	different	100	right	lower	left	upper	1	563	ses-01	451
sub-015	1	228	crossed	same	same	800	right	lower	right	lower	1	697	ses-01	452
sub-015	1	229	crossed	same	different	50	right	upper	right	lower	1	571	ses-01	453
sub-015	1	229	crossed	different	different	100	left	lower	right	upper	1	571	ses-01	454
sub-015	1	230	crossed	same	same	300	left	lower	left	lower	1	618	ses-01	455
sub-015	1	230	crossed	same	different	50	right	lower	right	upper	1	627	ses-01	456
sub-015	1	231	crossed	same	different	100	left	upper	left	lower	1	482	ses-01	457
sub-015	1	231	crossed	same	same	800	right	lower	right	lower	1	1116	ses-01	458
sub-015	1	232	crossed	different	different	50	left	lower	right	upper	1	738	ses-01	459
sub-015	1	232	crossed	different	same	300	left	lower	right	lower	1	686	ses-01	460
sub-015	1	233	crossed	same	different	50	left	upper	left	lower	1	613	ses-01	461
sub-015	1	233	crossed	different	same	300	right	lower	left	lower	1	625	ses-01	462
sub-015	1	234	crossed	different	same	50	right	lower	left	lower	1	633	ses-01	463
sub-015	1	234	crossed	different	same	100	left	lower	right	lower	1	588	ses-01	464
sub-015	1	235	crossed	different	different	50	right	lower	left	upper	1	706	ses-01	465
sub-015	1	235	crossed	same	same	100	right	lower	right	lower	1	553	ses-01	466
sub-015	1	236	crossed	same	same	50	left	lower	left	lower	1	594	ses-01	467
sub-015	1	236	crossed	different	different	100	left	lower	right	upper	1	575	ses-01	468
sub-015	1	237	crossed	different	different	100	right	lower	left	upper	1	575	ses-01	469
sub-015	1	237	crossed	different	different	300	right	upper	left	lower	1	775	ses-01	470
sub-015	1	238	crossed	same	different	300	left	lower	left	upper	1	641	ses-01	471
sub-015	1	238	crossed	different	different	800	right	lower	left	upper	1	593	ses-01	472
sub-015	1	239	crossed	different	different	300	right	lower	left	upper	1	624	ses-01	473
sub-015	1	239	crossed	same	different	50	left	lower	left	upper	1	470	ses-01	474
sub-015	1	240	crossed	same	same	300	right	lower	right	lower	1	800	ses-01	475
sub-015	1	240	crossed	different	same	800	right	lower	left	lower	1	551	ses-01	476
sub-015	1	242	crossed	same	same	50	left	lower	left	lower	1	766	ses-01	477
sub-015	1	243	crossed	different	same	800	right	lower	left	lower	1	890	ses-01	478
sub-015	1	244	crossed	same	same	100	left	lower	left	lower	1	542	ses-01	479
sub-015	1	245	crossed	same	different	100	right	upper	right	lower	1	493	ses-01	480
sub-015	1	246	crossed	different	different	50	left	lower	right	upper	1	1322	ses-01	481
sub-015	1	247	crossed	same	different	300	left	lower	left	upper	1	646	ses-01	482
sub-015	1	248	crossed	different	same	100	right	lower	left	lower	1	846	ses-01	483
sub-015	1	249	crossed	same	different	50	right	upper	right	lower	1	744	ses-01	484
sub-015	1	250	crossed	different	same	300	right	lower	left	lower	1	1017	ses-01	485
sub-015	1	251	crossed	same	different	800	left	lower	left	upper	1	1488	ses-01	486
sub-015	1	252	crossed	different	different	300	right	upper	left	lower	1	1441	ses-01	487
sub-015	1	253	crossed	different	different	50	left	lower	right	upper	1	649	ses-01	488
sub-015	1	254	crossed	different	different	800	right	lower	left	upper	1	564	ses-01	489
sub-015	1	255	crossed	different	different	50	right	upper	left	lower	1	590	ses-01	490
sub-015	1	256	crossed	same	different	100	right	lower	right	upper	1	530	ses-01	491
sub-015	1	257	crossed	different	different	100	left	lower	right	upper	1	554	ses-01	492
sub-015	1	258	crossed	different	different	50	right	lower	left	upper	1	553	ses-01	493
sub-015	1	259	crossed	same	same	300	right	lower	right	lower	1	981	ses-01	494
sub-015	1	260	crossed	different	different	300	right	lower	left	upper	1	580	ses-01	495
sub-015	1	261	crossed	different	different	50	left	lower	right	upper	1	2230	ses-01	496
sub-015	1	262	crossed	same	different	100	left	upper	left	lower	1	524	ses-01	497
sub-015	1	263	crossed	different	different	100	left	upper	right	lower	1	1397	ses-01	498
sub-015	1	264	crossed	different	different	100	left	upper	right	lower	1	1616	ses-01	499
sub-015	1	265	crossed	different	different	300	right	upper	left	lower	1	1595	ses-01	500
sub-015	1	266	crossed	same	different	50	right	lower	right	upper	1	593	ses-01	501
sub-015	1	267	crossed	same	same	300	left	lower	left	lower	1	652	ses-01	502
sub-015	1	268	crossed	different	different	800	left	upper	right	lower	1	834	ses-01	503
sub-015	1	269	crossed	different	different	50	right	lower	left	upper	1	613	ses-01	504
sub-015	1	270	crossed	different	same	300	right	lower	left	lower	1	1933	ses-01	505
sub-015	1	271	crossed	different	different	100	left	upper	right	lower	0	886	ses-01	506
sub-015	1	272	crossed	different	same	300	right	lower	left	lower	1	1295	ses-01	507
sub-015	1	273	crossed	different	same	100	right	lower	left	lower	1	1022	ses-01	508
sub-015	1	274	crossed	same	same	800	right	lower	right	lower	1	733	ses-01	509
sub-015	1	275	crossed	different	different	100	right	lower	left	upper	1	1131	ses-01	510
sub-015	1	276	crossed	different	same	50	left	lower	right	lower	1	1306	ses-01	511
sub-015	1	277	crossed	same	different	300	left	upper	left	lower	1	763	ses-01	512
sub-015	1	278	crossed	same	different	100	left	upper	left	lower	1	535	ses-01	513
sub-015	1	279	crossed	same	different	300	right	lower	right	upper	1	630	ses-01	514
sub-015	1	280	crossed	same	same	300	right	lower	right	lower	1	603	ses-01	515
sub-015	1	281	crossed	same	different	100	right	lower	right	upper	1	576	ses-01	516
sub-015	1	282	crossed	different	different	300	left	lower	right	upper	1	1334	ses-01	517
sub-015	1	283	crossed	different	same	300	left	lower	right	lower	1	698	ses-01	518
sub-015	1	284	crossed	same	same	50	right	lower	right	lower	1	592	ses-01	519
sub-015	1	285	crossed	different	different	100	left	lower	right	upper	1	638	ses-01	520
sub-015	1	287	crossed	same	same	100	left	lower	left	lower	1	709	ses-01	521
sub-015	1	288	crossed	same	different	50	right	lower	right	upper	1	486	ses-01	522
sub-015	1	289	crossed	same	same	50	left	lower	left	lower	1	496	ses-01	523
sub-015	1	291	crossed	different	different	300	right	upper	left	lower	1	1375	ses-01	524
sub-015	1	292	crossed	different	same	50	left	lower	right	lower	1	793	ses-01	525
sub-015	1	293	crossed	different	same	800	left	lower	right	lower	1	566	ses-01	526
sub-015	1	294	crossed	different	different	300	right	lower	left	upper	1	587	ses-01	527
sub-015	1	295	crossed	different	different	800	left	upper	right	lower	1	503	ses-01	528
sub-015	1	296	crossed	same	same	300	right	lower	right	lower	1	1338	ses-01	529
sub-015	1	297	crossed	different	same	100	right	lower	left	lower	1	626	ses-01	530
sub-015	1	298	crossed	same	same	800	left	lower	left	lower	1	694	ses-01	531
sub-015	1	299	crossed	different	same	100	right	lower	left	lower	1	605	ses-01	532
sub-015	1	300	crossed	different	same	300	right	lower	left	lower	1	657	ses-01	533
sub-015	1	301	crossed	same	different	100	left	lower	left	upper	1	565	ses-01	534
sub-015	1	302	crossed	same	different	800	right	upper	right	lower	1	697	ses-01	535
sub-015	1	303	crossed	different	same	100	left	lower	right	lower	1	697	ses-01	536
sub-015	1	304	crossed	different	different	100	right	upper	left	lower	1	870	ses-01	537
sub-015	1	306	crossed	different	same	800	right	lower	left	lower	1	732	ses-01	538
sub-015	1	307	crossed	different	same	800	left	lower	right	lower	1	565	ses-01	539
sub-015	1	308	crossed	same	different	100	right	upper	right	lower	1	704	ses-01	540
sub-015	1	309	crossed	same	same	800	right	lower	right	lower	1	702	ses-01	541
sub-015	1	310	crossed	same	same	800	left	lower	left	lower	1	641	ses-01	542
sub-015	1	311	crossed	same	different	300	right	upper	right	lower	1	614	ses-01	543
sub-015	1	312	crossed	same	same	800	left	lower	left	lower	1	683	ses-01	544
sub-015	1	313	crossed	same	same	50	right	lower	right	lower	1	1046	ses-01	545
sub-015	1	314	crossed	same	different	300	right	lower	right	upper	1	464	ses-01	546
sub-015	1	315	crossed	different	different	100	left	upper	right	lower	1	1005	ses-01	547
sub-015	1	316	crossed	same	same	50	left	lower	left	lower	1	702	ses-01	548
sub-015	1	317	crossed	same	different	100	left	upper	left	lower	1	547	ses-01	549
sub-015	1	318	crossed	different	different	800	left	lower	right	upper	1	600	ses-01	550
sub-015	1	319	crossed	different	same	50	left	lower	right	lower	1	760	ses-01	551
sub-015	1	320	crossed	different	same	300	right	lower	left	lower	1	596	ses-01	552
sub-015	1	321	crossed	same	different	50	right	upper	right	lower	1	498	ses-01	553
sub-015	1	322	crossed	same	different	50	right	lower	right	upper	1	477	ses-01	554
sub-015	1	323	crossed	different	different	100	right	lower	left	upper	1	532	ses-01	555
sub-015	1	324	crossed	different	different	100	left	lower	right	upper	1	497	ses-01	556
sub-015	1	325	crossed	different	different	800	right	lower	left	upper	1	584	ses-01	557
sub-015	1	326	crossed	same	different	300	right	lower	right	upper	1	1196	ses-01	558
sub-015	1	327	crossed	same	same	50	right	lower	right	lower	1	736	ses-01	559
sub-015	1	328	crossed	same	different	300	left	upper	left	lower	1	603	ses-01	560
sub-015	1	329	crossed	different	same	50	right	lower	left	lower	1	734	ses-01	561
sub-015	1	330	crossed	different	same	50	right	lower	left	lower	1	569	ses-01	562
sub-015	1	331	crossed	same	different	300	left	lower	left	upper	1	501	ses-01	563
sub-015	1	332	crossed	different	same	300	right	lower	left	lower	1	543	ses-01	564
sub-015	1	333	crossed	same	different	800	left	upper	left	lower	1	662	ses-01	565
sub-015	1	334	crossed	same	different	300	left	upper	left	lower	1	1021	ses-01	566
sub-015	1	335	crossed	different	different	800	left	lower	right	upper	1	642	ses-01	567
sub-015	1	336	crossed	same	same	300	right	lower	right	lower	1	813	ses-01	568
sub-015	1	337	crossed	different	same	800	left	lower	right	lower	1	644	ses-01	569
sub-015	1	338	crossed	different	different	800	right	upper	left	lower	1	677	ses-01	570
sub-015	1	339	crossed	same	same	800	left	lower	left	lower	1	580	ses-01	571
sub-015	1	340	crossed	different	different	300	left	upper	right	lower	1	671	ses-01	572
sub-015	1	341	crossed	same	same	100	left	lower	left	lower	1	593	ses-01	573
sub-015	1	342	crossed	same	same	50	right	lower	right	lower	1	646	ses-01	574
sub-015	1	343	crossed	different	same	100	right	lower	left	lower	1	870	ses-01	575
sub-015	1	344	crossed	same	different	300	left	upper	left	lower	1	621	ses-01	576
sub-015	1	345	crossed	different	same	100	right	lower	left	lower	1	796	ses-01	577
sub-015	1	346	crossed	same	different	100	left	upper	left	lower	1	475	ses-01	578
sub-015	1	347	crossed	different	different	800	right	upper	left	lower	1	607	ses-01	579
sub-015	1	348	crossed	different	same	100	left	lower	right	lower	1	455	ses-01	580
sub-015	1	349	crossed	different	different	100	left	lower	right	upper	1	475	ses-01	581
sub-015	1	350	crossed	different	same	50	right	lower	left	lower	1	519	ses-01	582
sub-015	1	351	crossed	same	different	800	right	lower	right	upper	1	594	ses-01	583
sub-015	1	352	crossed	same	same	50	left	lower	left	lower	1	486	ses-01	584
sub-015	1	353	crossed	same	different	800	left	upper	left	lower	1	722	ses-01	585
sub-015	1	354	crossed	same	same	800	left	lower	left	lower	1	621	ses-01	586
sub-015	1	355	crossed	same	same	100	right	lower	right	lower	1	480	ses-01	587
sub-015	1	356	crossed	different	different	800	left	upper	right	lower	0	616	ses-01	588
sub-015	1	357	crossed	same	different	100	right	upper	right	lower	1	606	ses-01	589
sub-015	1	358	crossed	different	different	50	right	lower	left	upper	1	650	ses-01	590
sub-015	1	359	crossed	different	different	800	left	lower	right	upper	1	894	ses-01	591
sub-015	1	360	crossed	different	same	300	left	lower	right	lower	1	502	ses-01	592
sub-015	1	361	crossed	different	different	800	right	lower	left	upper	1	1097	ses-01	593
sub-015	1	362	crossed	different	same	50	left	lower	right	lower	1	1280	ses-01	594
sub-015	1	363	crossed	different	different	300	right	upper	left	lower	1	716	ses-01	595
sub-015	1	364	crossed	different	different	800	right	lower	left	upper	1	599	ses-01	596
sub-015	1	365	crossed	same	different	50	left	upper	left	lower	1	636	ses-01	597
sub-015	1	366	crossed	same	different	300	left	upper	left	lower	1	684	ses-01	598
sub-015	1	367	crossed	same	different	50	left	upper	left	lower	1	547	ses-01	599
sub-015	1	368	crossed	same	same	50	left	lower	left	lower	1	496	ses-01	600
sub-015	1	369	crossed	same	same	800	right	lower	right	lower	1	824	ses-01	601
sub-015	1	370	crossed	same	different	50	right	upper	right	lower	1	514	ses-01	602
sub-015	1	371	crossed	different	same	300	left	lower	right	lower	1	685	ses-01	603
sub-015	1	372	crossed	same	different	300	left	lower	left	upper	1	528	ses-01	604
sub-015	1	373	crossed	same	different	300	right	lower	right	upper	1	601	ses-01	605
sub-015	1	374	crossed	different	same	800	left	lower	right	lower	1	1065	ses-01	606
sub-015	1	375	crossed	same	different	50	left	upper	left	lower	1	576	ses-01	607
sub-015	1	376	crossed	different	different	300	left	upper	right	lower	1	653	ses-01	608
sub-015	1	377	crossed	different	different	100	right	upper	left	lower	1	628	ses-01	609
sub-015	1	378	crossed	different	different	300	left	upper	right	lower	1	665	ses-01	610
sub-015	1	379	crossed	same	same	800	right	lower	right	lower	1	1044	ses-01	611
sub-015	1	380	crossed	same	same	800	left	lower	left	lower	1	620	ses-01	612
sub-015	1	381	crossed	same	same	100	right	lower	right	lower	1	688	ses-01	613
sub-015	1	382	crossed	different	same	50	right	lower	left	lower	1	1074	ses-01	614
sub-015	1	383	crossed	different	same	800	right	lower	left	lower	1	1101	ses-01	615
sub-015	1	384	crossed	same	same	300	left	lower	left	lower	1	611	ses-01	616
sub-015	1	385	crossed	different	different	50	left	lower	right	upper	1	764	ses-01	617
sub-015	1	386	crossed	same	same	100	right	lower	right	lower	1	528	ses-01	618
sub-015	1	387	crossed	same	same	300	left	lower	left	lower	1	625	ses-01	619
sub-015	1	388	crossed	same	same	800	right	lower	right	lower	1	561	ses-01	620
sub-015	1	389	crossed	same	same	800	left	lower	left	lower	1	637	ses-01	621
sub-015	1	390	crossed	same	different	50	left	upper	left	lower	1	647	ses-01	622
sub-015	2	1	crossed	different	different	100	right	lower	left	upper	1	1064	ses-01	623
sub-015	2	2	crossed	same	different	100	left	lower	left	upper	1	1688	ses-01	624
sub-015	2	3	crossed	same	same	50	left	lower	left	lower	1	580	ses-01	625
sub-015	2	4	crossed	different	same	50	left	lower	right	lower	1	886	ses-01	626
sub-015	2	5	crossed	different	different	50	left	upper	right	lower	1	764	ses-01	627
sub-015	2	6	crossed	different	different	50	right	upper	left	lower	1	1607	ses-01	628
sub-015	2	7	crossed	different	different	100	left	lower	right	upper	1	575	ses-01	629
sub-015	2	8	crossed	different	same	50	right	lower	left	lower	0	1951	ses-01	630
sub-015	2	9	crossed	different	different	100	right	lower	left	upper	1	682	ses-01	631
sub-015	2	10	crossed	same	same	300	right	lower	right	lower	1	832	ses-01	632
sub-015	2	11	crossed	same	same	300	left	lower	left	lower	1	827	ses-01	633
sub-015	2	12	crossed	same	different	800	left	lower	left	upper	1	649	ses-01	634
sub-015	2	13	crossed	same	different	100	right	upper	right	lower	1	535	ses-01	635
sub-015	2	14	crossed	different	different	50	right	upper	left	lower	1	1858	ses-01	636
sub-015	2	15	crossed	same	different	100	left	upper	left	lower	1	854	ses-01	637
sub-015	2	16	crossed	different	same	800	left	lower	right	lower	1	764	ses-01	638
sub-015	2	17	crossed	same	different	50	right	lower	right	upper	1	575	ses-01	639
sub-015	2	18	crossed	same	different	800	right	lower	right	upper	1	841	ses-01	640
sub-015	2	19	crossed	same	different	100	right	lower	right	upper	1	555	ses-01	641
sub-015	2	20	crossed	same	same	800	right	lower	right	lower	1	876	ses-01	642
sub-015	2	21	crossed	different	same	100	left	lower	right	lower	1	759	ses-01	643
sub-015	2	22	crossed	different	different	100	left	lower	right	upper	1	896	ses-01	644
sub-015	2	23	crossed	same	same	800	left	lower	left	lower	1	1760	ses-01	645
sub-015	2	24	crossed	same	different	50	right	upper	right	lower	1	581	ses-01	646
sub-015	2	25	crossed	different	different	300	left	upper	right	lower	1	1318	ses-01	647
sub-015	2	26	crossed	same	different	800	right	lower	right	upper	1	843	ses-01	648
sub-015	2	27	crossed	same	different	50	right	lower	right	upper	1	786	ses-01	649
sub-015	2	28	crossed	same	different	50	right	upper	right	lower	1	783	ses-01	650
sub-015	2	29	crossed	different	same	100	left	lower	right	lower	1	932	ses-01	651
sub-015	2	30	crossed	different	different	300	left	upper	right	lower	1	517	ses-01	652
sub-015	2	31	crossed	same	same	50	left	lower	left	lower	1	758	ses-01	653
sub-015	2	32	crossed	different	same	800	left	lower	right	lower	1	731	ses-01	654
sub-015	2	33	crossed	same	different	800	right	lower	right	upper	1	774	ses-01	655
sub-015	2	34	crossed	different	same	300	left	lower	right	lower	1	697	ses-01	656
sub-015	2	36	crossed	different	different	50	left	upper	right	lower	1	1345	ses-01	657
sub-015	2	37	crossed	different	same	50	right	lower	left	lower	1	716	ses-01	658
sub-015	2	38	crossed	different	different	50	left	upper	right	lower	1	828	ses-01	659
sub-015	2	39	crossed	different	same	300	right	lower	left	lower	1	1738	ses-01	660
sub-015	2	40	crossed	different	different	100	right	upper	left	lower	1	2220	ses-01	661
sub-015	2	41	crossed	same	same	300	left	lower	left	lower	1	1034	ses-01	662
sub-015	2	42	crossed	different	same	800	left	lower	right	lower	1	657	ses-01	663
sub-015	2	43	crossed	same	same	300	right	lower	right	lower	1	565	ses-01	664
sub-015	2	44	crossed	same	different	300	left	lower	left	upper	1	780	ses-01	665
sub-015	2	45	crossed	same	same	800	left	lower	left	lower	1	929	ses-01	666
sub-015	2	46	crossed	different	different	800	left	lower	right	upper	1	716	ses-01	667
sub-015	2	47	crossed	same	same	50	right	lower	right	lower	1	1021	ses-01	668
sub-015	2	48	crossed	same	same	800	left	lower	left	lower	1	1325	ses-01	669
sub-015	2	49	crossed	different	different	50	left	lower	right	upper	1	1658	ses-01	670
sub-015	2	50	crossed	same	different	300	right	lower	right	upper	1	754	ses-01	671
sub-015	2	51	crossed	different	different	100	left	upper	right	lower	1	647	ses-01	672
sub-015	2	52	crossed	different	different	50	left	upper	right	lower	1	1377	ses-01	673
sub-015	2	53	crossed	same	same	100	right	lower	right	lower	1	696	ses-01	674
sub-015	2	54	crossed	different	same	100	left	lower	right	lower	1	760	ses-01	675
sub-015	2	55	crossed	different	same	100	left	lower	right	lower	1	989	ses-01	676
sub-015	2	56	crossed	same	different	800	right	upper	right	lower	1	2127	ses-01	677
sub-015	2	57	crossed	same	different	800	right	lower	right	upper	1	670	ses-01	678
sub-015	2	58	crossed	different	different	100	left	upper	right	lower	1	642	ses-01	679
sub-015	2	59	crossed	different	same	800	right	lower	left	lower	1	1198	ses-01	680
sub-015	2	60	crossed	different	different	800	left	upper	right	lower	1	736	ses-01	681
sub-015	2	61	crossed	same	different	50	left	lower	left	upper	1	751	ses-01	682
sub-015	2	62	crossed	different	different	100	left	upper	right	lower	1	642	ses-01	683
sub-015	2	63	crossed	same	different	100	left	lower	left	upper	1	610	ses-01	684
sub-015	2	64	crossed	same	same	100	right	lower	right	lower	1	520	ses-01	685
sub-015	2	65	crossed	different	same	50	right	lower	left	lower	1	1180	ses-01	686
sub-015	2	66	crossed	different	different	100	left	lower	right	upper	1	1580	ses-01	687
sub-015	2	67	crossed	different	different	800	right	lower	left	upper	1	490	ses-01	688
sub-015	2	68	crossed	different	different	50	right	lower	left	upper	1	441	ses-01	689
sub-015	2	69	crossed	same	same	50	left	lower	left	lower	1	654	ses-01	690
sub-015	2	70	crossed	different	different	100	right	upper	left	lower	1	703	ses-01	691
sub-015	2	71	crossed	same	same	50	left	lower	left	lower	1	491	ses-01	692
sub-015	2	72	crossed	different	same	50	left	lower	right	lower	1	475	ses-01	693
sub-015	2	73	crossed	different	same	800	left	lower	right	lower	1	716	ses-01	694
sub-015	2	74	crossed	same	same	100	left	lower	left	lower	1	559	ses-01	695
sub-015	2	75	crossed	different	same	100	right	lower	left	lower	1	1111	ses-01	696
sub-015	2	76	crossed	different	same	300	left	lower	right	lower	1	563	ses-01	697
sub-015	2	77	crossed	same	different	800	right	upper	right	lower	1	926	ses-01	698
sub-015	2	78	crossed	same	same	300	left	lower	left	lower	1	638	ses-01	699
sub-015	2	79	crossed	same	different	300	left	upper	left	lower	1	609	ses-01	700
sub-015	2	80	crossed	same	same	50	right	lower	right	lower	1	522	ses-01	701
sub-015	2	81	crossed	different	same	800	left	lower	right	lower	1	606	ses-01	702
sub-015	2	83	crossed	different	same	300	left	lower	right	lower	1	803	ses-01	703
sub-015	2	84	crossed	different	different	100	right	upper	left	lower	1	1795	ses-01	704
sub-015	2	85	crossed	same	different	100	left	upper	left	lower	1	638	ses-01	705
sub-015	2	86	crossed	same	same	100	right	lower	right	lower	1	890	ses-01	706
sub-015	2	87	crossed	different	different	100	left	upper	right	lower	1	1354	ses-01	707
sub-015	2	88	crossed	different	same	100	left	lower	right	lower	1	772	ses-01	708
sub-015	2	89	crossed	same	different	100	right	upper	right	lower	1	816	ses-01	709
sub-015	2	90	crossed	same	different	300	left	upper	left	lower	1	665	ses-01	710
sub-015	2	91	crossed	different	same	100	right	lower	left	lower	1	642	ses-01	711
sub-015	2	92	crossed	different	different	800	left	lower	right	upper	1	731	ses-01	712
sub-015	2	93	crossed	same	same	800	right	lower	right	lower	1	1038	ses-01	713
sub-015	2	94	crossed	same	different	50	right	lower	right	upper	1	795	ses-01	714
sub-015	2	95	crossed	different	same	300	left	lower	right	lower	1	697	ses-01	715
sub-015	2	96	crossed	same	same	800	right	lower	right	lower	1	1784	ses-01	716
sub-015	2	97	crossed	same	same	800	left	lower	left	lower	1	1762	ses-01	717
sub-015	2	98	crossed	different	different	800	left	upper	right	lower	1	603	ses-01	718
sub-015	2	99	crossed	same	different	50	right	upper	right	lower	1	539	ses-01	719
sub-015	2	100	crossed	same	same	800	right	lower	right	lower	1	614	ses-01	720
sub-015	2	101	crossed	same	same	300	left	lower	left	lower	1	571	ses-01	721
sub-015	2	102	crossed	same	different	800	left	lower	left	upper	1	520	ses-01	722
sub-015	2	103	crossed	different	different	50	left	lower	right	upper	1	521	ses-01	723
sub-015	2	104	crossed	different	different	50	right	upper	left	lower	1	818	ses-01	724
sub-015	2	105	crossed	same	different	100	left	lower	left	upper	1	620	ses-01	725
sub-015	2	106	crossed	same	different	800	left	upper	left	lower	1	757	ses-01	726
sub-015	2	107	crossed	same	different	100	right	upper	right	lower	1	574	ses-01	727
sub-015	2	108	crossed	different	same	800	right	lower	left	lower	1	828	ses-01	728
sub-015	2	109	crossed	different	different	800	right	lower	left	upper	1	748	ses-01	729
sub-015	2	110	crossed	different	same	100	left	lower	right	lower	1	456	ses-01	730
sub-015	2	111	crossed	different	same	50	left	lower	right	lower	1	843	ses-01	731
sub-015	2	112	crossed	same	different	100	left	upper	left	lower	1	552	ses-01	732
sub-015	2	113	crossed	different	same	50	right	lower	left	lower	1	507	ses-01	733
sub-015	2	114	crossed	same	same	100	left	lower	left	lower	1	1078	ses-01	734
sub-015	2	115	crossed	same	same	100	left	lower	left	lower	1	510	ses-01	735
sub-015	2	116	crossed	same	same	800	left	lower	left	lower	1	546	ses-01	736
sub-015	2	117	crossed	different	different	100	left	upper	right	lower	1	597	ses-01	737
sub-015	2	118	crossed	different	same	300	right	lower	left	lower	1	668	ses-01	738
sub-015	2	119	crossed	same	same	50	right	lower	right	lower	1	663	ses-01	739
sub-015	2	120	crossed	different	same	50	left	lower	right	lower	1	1162	ses-01	740
sub-015	2	121	crossed	different	different	800	right	upper	left	lower	1	1563	ses-01	741
sub-015	2	122	crossed	different	different	300	left	upper	right	lower	1	619	ses-01	742
sub-015	2	123	crossed	same	same	50	right	lower	right	lower	1	528	ses-01	743
sub-015	2	124	crossed	same	same	50	right	lower	right	lower	1	578	ses-01	744
sub-015	2	125	crossed	same	different	50	left	upper	left	lower	1	493	ses-01	745
sub-015	2	126	crossed	same	different	300	left	lower	left	upper	1	575	ses-01	746
sub-015	2	127	crossed	same	different	50	left	lower	left	upper	1	675	ses-01	747
sub-015	2	128	crossed	same	same	100	right	lower	right	lower	1	489	ses-01	748
sub-015	2	129	crossed	different	same	50	right	lower	left	lower	1	696	ses-01	749
sub-015	2	130	crossed	same	same	800	right	lower	right	lower	1	1382	ses-01	750
sub-015	2	131	crossed	same	different	300	right	upper	right	lower	1	918	ses-01	751
sub-015	2	132	crossed	different	same	100	left	lower	right	lower	1	1245	ses-01	752
sub-015	2	133	crossed	same	different	50	left	upper	left	lower	1	518	ses-01	753
sub-015	2	134	crossed	same	different	50	left	lower	left	upper	1	508	ses-01	754
sub-015	2	135	crossed	same	same	800	right	lower	right	lower	1	698	ses-01	755
sub-015	2	136	crossed	different	different	300	right	lower	left	upper	1	565	ses-01	756
sub-015	2	137	crossed	different	same	300	right	lower	left	lower	1	722	ses-01	757
sub-015	2	138	crossed	same	different	300	right	upper	right	lower	1	874	ses-01	758
sub-015	2	139	crossed	different	same	50	left	lower	right	lower	1	491	ses-01	759
sub-015	2	140	crossed	different	same	300	right	lower	left	lower	1	915	ses-01	760
sub-015	2	141	crossed	different	different	300	right	lower	left	upper	1	531	ses-01	761
sub-015	2	142	crossed	same	same	50	right	lower	right	lower	1	502	ses-01	762
sub-015	2	143	crossed	same	different	300	left	upper	left	lower	1	634	ses-01	763
sub-015	2	144	crossed	different	same	800	right	lower	left	lower	0	825	ses-01	764
sub-015	2	145	crossed	different	same	800	right	lower	left	lower	1	1012	ses-01	765
sub-015	2	147	crossed	different	different	300	right	upper	left	lower	1	693	ses-01	766
sub-015	2	148	crossed	different	same	100	right	lower	left	lower	1	726	ses-01	767
sub-015	2	149	crossed	same	same	300	right	lower	right	lower	1	1907	ses-01	768
sub-015	2	150	crossed	same	different	800	left	lower	left	upper	1	1527	ses-01	769
sub-015	2	151	crossed	same	different	300	left	lower	left	upper	1	602	ses-01	770
sub-015	2	152	crossed	different	different	800	right	upper	left	lower	1	1226	ses-01	771
sub-015	2	153	crossed	different	different	300	right	lower	left	upper	1	725	ses-01	772
sub-015	2	154	crossed	same	same	50	left	lower	left	lower	1	966	ses-01	773
sub-015	2	155	crossed	same	different	300	right	lower	right	upper	1	861	ses-01	774
sub-015	2	156	crossed	different	different	800	left	upper	right	lower	1	789	ses-01	775
sub-015	2	157	crossed	different	same	800	right	lower	left	lower	1	594	ses-01	776
sub-015	2	158	crossed	different	same	50	left	lower	right	lower	1	599	ses-01	777
sub-015	2	159	crossed	same	same	100	left	lower	left	lower	1	626	ses-01	778
sub-015	2	160	crossed	same	same	800	right	lower	right	lower	1	670	ses-01	779
sub-015	2	161	crossed	different	same	300	right	lower	left	lower	1	598	ses-01	780
sub-015	2	162	crossed	different	same	800	left	lower	right	lower	1	687	ses-01	781
sub-015	2	163	crossed	different	same	800	right	lower	left	lower	1	596	ses-01	782
sub-015	2	164	crossed	different	different	300	left	lower	right	upper	1	609	ses-01	783
sub-015	2	165	crossed	same	same	50	left	lower	left	lower	1	650	ses-01	784
sub-015	2	166	crossed	different	different	100	right	upper	left	lower	1	542	ses-01	785
sub-015	2	167	crossed	different	different	300	left	upper	right	lower	1	575	ses-01	786
sub-015	2	168	crossed	different	same	100	right	lower	left	lower	1	541	ses-01	787
sub-015	2	169	crossed	same	same	100	left	lower	left	lower	1	859	ses-01	788
sub-015	2	170	crossed	same	different	300	left	upper	left	lower	1	762	ses-01	789
sub-015	2	171	crossed	same	different	800	left	upper	left	lower	1	951	ses-01	790
sub-015	2	172	crossed	different	same	50	left	lower	right	lower	1	734	ses-01	791
sub-015	2	173	crossed	different	same	300	right	lower	left	lower	1	1278	ses-01	792
sub-015	2	174	crossed	same	different	100	left	lower	left	upper	1	760	ses-01	793
sub-015	2	175	crossed	different	different	100	left	lower	right	upper	1	625	ses-01	794
sub-015	2	176	crossed	same	different	50	right	upper	right	lower	1	667	ses-01	795
sub-015	2	177	crossed	same	different	50	right	upper	right	lower	1	523	ses-01	796
sub-015	2	178	crossed	same	different	300	left	upper	left	lower	1	577	ses-01	797
sub-015	2	179	crossed	different	same	300	right	lower	left	lower	1	620	ses-01	798
sub-015	2	180	crossed	different	same	300	right	lower	left	lower	1	539	ses-01	799
sub-015	2	181	crossed	same	same	800	right	lower	right	lower	1	620	ses-01	800
sub-015	2	182	crossed	different	same	800	right	lower	left	lower	1	579	ses-01	801
sub-015	2	183	crossed	same	different	50	left	lower	left	upper	1	669	ses-01	802
sub-015	2	184	crossed	same	different	50	right	upper	right	lower	1	551	ses-01	803
sub-015	2	185	crossed	same	same	100	right	lower	right	lower	1	624	ses-01	804
sub-015	2	186	crossed	same	same	100	left	lower	left	lower	1	677	ses-01	805
sub-015	2	187	crossed	same	same	50	right	lower	right	lower	1	648	ses-01	806
sub-015	2	188	crossed	different	different	300	left	upper	right	lower	1	652	ses-01	807
sub-015	2	189	crossed	different	same	300	left	lower	right	lower	1	805	ses-01	808
sub-015	2	190	crossed	same	same	800	left	lower	left	lower	1	709	ses-01	809
sub-015	2	191	crossed	same	different	800	right	upper	right	lower	1	779	ses-01	810
sub-015	2	192	crossed	different	same	800	right	lower	left	lower	1	682	ses-01	811
sub-015	2	193	crossed	different	different	50	left	lower	right	upper	1	1527	ses-01	812
sub-015	2	194	crossed	same	same	300	right	lower	right	lower	1	696	ses-01	813
sub-015	2	195	crossed	same	different	800	left	lower	left	upper	1	919	ses-01	814
sub-015	2	196	crossed	different	same	50	left	lower	right	lower	1	1688	ses-01	815
sub-015	2	197	crossed	same	same	800	right	lower	right	lower	1	741	ses-01	816
sub-015	2	198	crossed	same	same	800	left	lower	left	lower	1	869	ses-01	817
sub-015	2	199	crossed	different	different	100	right	lower	left	upper	1	712	ses-01	818
sub-015	2	200	crossed	different	same	50	right	lower	left	lower	1	1123	ses-01	819
sub-015	2	201	crossed	same	same	100	left	lower	left	lower	1	570	ses-01	820
sub-015	2	202	crossed	different	same	100	left	lower	right	lower	1	1438	ses-01	821
sub-015	2	203	crossed	different	different	300	right	upper	left	lower	1	1877	ses-01	822
sub-015	2	204	crossed	different	different	300	right	lower	left	upper	1	2289	ses-01	823
sub-015	2	205	crossed	same	same	50	left	lower	left	lower	1	655	ses-01	824
sub-015	2	206	crossed	same	different	50	left	lower	left	upper	1	681	ses-01	825
sub-015	2	207	crossed	same	different	300	left	lower	left	upper	1	943	ses-01	826
sub-015	2	208	crossed	same	same	300	left	lower	left	lower	1	795	ses-01	827
sub-015	2	209	crossed	different	same	50	right	lower	left	lower	1	890	ses-01	828
sub-015	2	210	crossed	same	same	300	left	lower	left	lower	1	621	ses-01	829
sub-015	2	211	crossed	different	same	100	right	lower	left	lower	1	680	ses-01	830
sub-015	2	212	crossed	same	different	800	left	upper	left	lower	1	767	ses-01	831
sub-015	2	213	crossed	different	same	800	right	lower	left	lower	1	1072	ses-01	832
sub-015	2	214	crossed	same	same	50	right	lower	right	lower	1	936	ses-01	833
sub-015	2	215	crossed	different	same	300	right	lower	left	lower	1	636	ses-01	834
sub-015	2	216	crossed	same	different	50	right	lower	right	upper	1	728	ses-01	835
sub-015	2	217	crossed	different	different	50	left	lower	right	upper	1	1285	ses-01	836
sub-015	2	218	crossed	different	different	100	right	upper	left	lower	1	1854	ses-01	837
sub-015	2	219	crossed	different	same	50	left	lower	right	lower	1	815	ses-01	838
sub-015	2	220	crossed	same	same	50	left	lower	left	lower	1	620	ses-01	839
sub-015	2	221	crossed	different	different	50	left	lower	right	upper	1	567	ses-01	840
sub-015	2	222	crossed	different	different	50	left	upper	right	lower	1	831	ses-01	841
sub-015	2	223	crossed	same	different	300	right	upper	right	lower	1	899	ses-01	842
sub-015	2	224	crossed	different	same	800	left	lower	right	lower	1	669	ses-01	843
sub-015	2	225	crossed	different	different	100	right	lower	left	upper	1	541	ses-01	844
sub-015	2	226	crossed	different	same	300	left	lower	right	lower	1	474	ses-01	845
sub-015	2	227	crossed	same	different	800	right	upper	right	lower	1	662	ses-01	846
sub-015	2	228	crossed	same	same	800	left	lower	left	lower	1	599	ses-01	847
sub-015	2	229	crossed	different	same	100	right	lower	left	lower	1	577	ses-01	848
sub-015	2	230	crossed	different	same	100	right	lower	left	lower	1	462	ses-01	849
sub-015	2	231	crossed	same	same	800	left	lower	left	lower	1	817	ses-01	850
sub-015	2	232	crossed	same	different	100	left	lower	left	upper	1	624	ses-01	851
sub-015	2	233	crossed	different	same	300	right	lower	left	lower	1	556	ses-01	852
sub-015	2	234	crossed	different	same	800	left	lower	right	lower	1	1009	ses-01	853
sub-015	2	235	crossed	same	same	300	left	lower	left	lower	1	548	ses-01	854
sub-015	2	236	crossed	different	same	50	left	lower	right	lower	1	541	ses-01	855
sub-015	2	237	crossed	different	different	50	right	lower	left	upper	1	667	ses-01	856
sub-015	2	238	crossed	different	different	300	left	lower	right	upper	1	634	ses-01	857
sub-015	2	239	crossed	same	different	50	left	lower	left	upper	1	582	ses-01	858
sub-015	2	240	crossed	different	same	100	right	lower	left	lower	1	468	ses-01	859
sub-015	2	241	crossed	different	same	100	right	lower	left	lower	1	797	ses-01	860
sub-015	2	242	crossed	same	same	100	right	lower	right	lower	1	634	ses-01	861
sub-015	2	243	crossed	same	different	300	right	upper	right	lower	1	616	ses-01	862
sub-015	2	244	crossed	different	different	300	left	lower	right	upper	1	659	ses-01	863
sub-015	2	245	crossed	same	same	800	left	lower	left	lower	1	674	ses-01	864
sub-015	2	246	crossed	different	different	100	left	upper	right	lower	1	675	ses-01	865
sub-015	2	247	crossed	same	same	300	left	lower	left	lower	1	637	ses-01	866
sub-015	2	248	crossed	same	same	50	right	lower	right	lower	1	600	ses-01	867
sub-015	2	249	crossed	different	same	100	right	lower	left	lower	1	541	ses-01	868
sub-015	2	250	crossed	same	same	300	left	lower	left	lower	1	682	ses-01	869
sub-015	2	251	crossed	same	same	300	left	lower	left	lower	1	487	ses-01	870
sub-015	2	252	crossed	different	different	100	left	lower	right	upper	1	544	ses-01	871
sub-015	2	253	crossed	same	same	300	left	lower	left	lower	1	641	ses-01	872
sub-015	2	254	crossed	same	same	100	left	lower	left	lower	1	545	ses-01	873
sub-015	2	255	crossed	different	different	100	right	lower	left	upper	1	507	ses-01	874
sub-015	2	256	crossed	same	same	800	right	lower	right	lower	1	664	ses-01	875
sub-015	2	257	crossed	different	different	800	right	lower	left	upper	1	683	ses-01	876
sub-015	2	258	crossed	different	different	50	right	upper	left	lower	1	892	ses-01	877
sub-015	2	259	crossed	different	same	300	left	lower	right	lower	1	714	ses-01	878
sub-015	2	260	crossed	same	different	300	right	lower	right	upper	1	503	ses-01	879
sub-015	2	261	crossed	same	same	100	left	lower	left	lower	1	534	ses-01	880
sub-015	2	262	crossed	same	same	300	right	lower	right	lower	1	641	ses-01	881
sub-015	2	263	crossed	same	different	50	left	upper	left	lower	1	489	ses-01	882
sub-015	2	264	crossed	same	different	50	right	lower	right	upper	1	508	ses-01	883
sub-015	2	265	crossed	same	same	50	left	lower	left	lower	1	491	ses-01	884
sub-015	2	266	crossed	different	different	800	left	lower	right	upper	1	800	ses-01	885
sub-015	2	268	crossed	different	same	800	right	lower	left	lower	1	620	ses-01	886
sub-015	2	269	crossed	different	different	300	left	upper	right	lower	1	587	ses-01	887
sub-015	2	270	crossed	same	same	800	left	lower	left	lower	1	599	ses-01	888
sub-015	2	271	crossed	different	same	300	left	lower	right	lower	1	571	ses-01	889
sub-015	2	272	crossed	different	different	800	right	lower	left	upper	1	604	ses-01	890
sub-015	2	273	crossed	same	different	50	right	lower	right	upper	1	512	ses-01	891
sub-015	2	274	crossed	same	same	300	right	lower	right	lower	1	628	ses-01	892
sub-015	2	275	crossed	same	different	100	left	lower	left	upper	1	558	ses-01	893
sub-015	2	276	crossed	different	different	800	left	lower	right	upper	1	659	ses-01	894
sub-015	2	277	crossed	different	different	100	right	lower	left	upper	1	703	ses-01	895
sub-015	2	278	crossed	different	same	800	left	lower	right	lower	1	760	ses-01	896
sub-015	2	279	crossed	same	different	100	right	lower	right	upper	1	512	ses-01	897
sub-015	2	280	crossed	different	different	50	left	upper	right	lower	1	484	ses-01	898
sub-015	2	281	crossed	different	same	100	right	lower	left	lower	1	596	ses-01	899
sub-015	2	282	crossed	same	different	50	left	upper	left	lower	1	593	ses-01	900
sub-015	2	283	crossed	different	different	100	right	upper	left	lower	1	581	ses-01	901
sub-015	2	284	crossed	different	same	300	left	lower	right	lower	1	592	ses-01	902
sub-015	2	285	crossed	different	same	100	left	lower	right	lower	1	514	ses-01	903
sub-015	2	286	crossed	different	different	300	right	lower	left	upper	1	577	ses-01	904
sub-015	2	287	crossed	different	same	300	left	lower	right	lower	1	509	ses-01	905
sub-015	2	288	crossed	same	different	100	right	lower	right	upper	1	650	ses-01	906
sub-015	2	289	crossed	different	same	100	left	lower	right	lower	1	575	ses-01	907
sub-015	2	290	crossed	same	same	100	right	lower	right	lower	1	542	ses-01	908
sub-015	2	291	crossed	different	different	50	right	upper	left	lower	1	635	ses-01	909
sub-015	2	292	crossed	same	same	100	right	lower	right	lower	1	541	ses-01	910
sub-015	2	293	crossed	different	same	50	left	lower	right	lower	1	717	ses-01	911
sub-015	2	294	crossed	different	different	800	right	upper	left	lower	1	916	ses-01	912
sub-015	2	295	crossed	different	same	800	left	lower	right	lower	1	1362	ses-01	913
sub-015	2	296	crossed	same	different	800	left	upper	left	lower	1	987	ses-01	914
sub-015	2	297	crossed	different	same	50	right	lower	left	lower	1	1705	ses-01	915
sub-015	2	298	crossed	different	different	800	left	upper	right	lower	1	908	ses-01	916
sub-015	2	299	crossed	same	different	800	left	upper	left	lower	1	1674	ses-01	917
sub-015	2	300	crossed	different	different	800	left	lower	right	upper	1	608	ses-01	918
sub-015	2	302	crossed	different	same	50	right	lower	left	lower	1	1562	ses-01	919
sub-015	2	303	crossed	same	different	100	right	lower	right	upper	1	578	ses-01	920
sub-015	2	304	crossed	different	different	50	right	lower	left	upper	1	579	ses-01	921
sub-015	2	305	crossed	different	different	50	right	upper	left	lower	1	1050	ses-01	922
sub-015	2	306	crossed	different	different	800	right	upper	left	lower	1	649	ses-01	923
sub-015	2	307	crossed	different	different	800	right	upper	left	lower	1	569	ses-01	924
sub-015	2	308	crossed	different	different	300	left	lower	right	upper	1	797	ses-01	925
sub-015	2	309	crossed	different	same	800	left	lower	right	lower	1	546	ses-01	926
sub-015	2	310	crossed	different	different	800	left	upper	right	lower	1	559	ses-01	927
sub-015	2	311	crossed	different	same	50	right	lower	left	lower	1	517	ses-01	928
sub-015	2	312	crossed	different	same	300	left	lower	right	lower	1	459	ses-01	929
sub-015	2	313	crossed	different	different	300	left	lower	right	upper	1	838	ses-01	930
sub-015	2	314	crossed	same	different	100	left	upper	left	lower	1	943	ses-01	931
sub-015	2	315	crossed	different	different	300	left	lower	right	upper	1	1026	ses-01	932
sub-015	2	316	crossed	same	different	100	right	upper	right	lower	1	664	ses-01	933
sub-015	2	317	crossed	different	same	300	right	lower	left	lower	1	688	ses-01	934
sub-015	2	318	crossed	same	same	50	right	lower	right	lower	1	605	ses-01	935
sub-015	2	319	crossed	same	different	800	left	lower	left	upper	1	739	ses-01	936
sub-015	2	321	crossed	same	different	300	right	upper	right	lower	1	658	ses-01	937
sub-015	2	322	crossed	same	same	100	right	lower	right	lower	1	565	ses-01	938
sub-015	2	323	crossed	same	different	100	right	lower	right	upper	1	472	ses-01	939
sub-015	2	324	crossed	different	different	300	right	lower	left	upper	1	612	ses-01	940
sub-015	2	325	crossed	same	different	100	right	upper	right	lower	1	602	ses-01	941
sub-015	2	326	crossed	same	same	800	right	lower	right	lower	1	1205	ses-01	942
sub-015	2	327	crossed	same	same	100	right	lower	right	lower	1	533	ses-01	943
sub-015	2	328	crossed	different	same	300	left	lower	right	lower	1	642	ses-01	944
sub-015	2	329	crossed	same	different	100	left	upper	left	lower	1	561	ses-01	945
sub-015	2	330	crossed	different	different	50	right	lower	left	upper	1	573	ses-01	946
sub-015	2	331	crossed	different	different	300	right	upper	left	lower	1	994	ses-01	947
sub-015	2	332	crossed	same	same	100	left	lower	left	lower	1	616	ses-01	948
sub-015	2	333	crossed	different	different	800	right	lower	left	upper	1	818	ses-01	949
sub-015	2	334	crossed	same	same	300	right	lower	right	lower	1	724	ses-01	950
sub-015	2	335	crossed	same	same	300	right	lower	right	lower	1	1040	ses-01	951
sub-015	2	336	crossed	different	different	100	left	lower	right	upper	1	871	ses-01	952
sub-015	2	337	crossed	same	different	800	right	upper	right	lower	1	1236	ses-01	953
sub-015	2	338	crossed	different	different	300	right	upper	left	lower	1	817	ses-01	954
sub-015	2	339	crossed	different	different	800	right	lower	left	upper	1	691	ses-01	955
sub-015	2	340	crossed	same	same	100	left	lower	left	lower	1	715	ses-01	956
sub-015	2	341	crossed	same	different	300	right	lower	right	upper	1	539	ses-01	957
sub-015	2	342	crossed	different	same	800	left	lower	right	lower	1	611	ses-01	958
sub-015	2	343	crossed	same	same	300	right	lower	right	lower	1	593	ses-01	959
sub-015	2	344	crossed	same	different	800	right	upper	right	lower	1	621	ses-01	960
sub-015	2	345	crossed	same	same	50	right	lower	right	lower	1	459	ses-01	961
sub-015	2	346	crossed	same	different	800	left	lower	left	upper	1	763	ses-01	962
sub-015	2	348	crossed	different	same	100	left	lower	right	lower	1	634	ses-01	963
sub-015	2	349	crossed	same	same	100	left	lower	left	lower	1	515	ses-01	964
sub-015	2	350	crossed	different	different	800	right	upper	left	lower	1	708	ses-01	965
sub-015	2	351	crossed	different	same	50	right	lower	left	lower	1	650	ses-01	966
sub-015	2	352	crossed	same	different	100	left	upper	left	lower	1	500	ses-01	967
sub-015	2	353	crossed	same	different	100	right	lower	right	upper	1	504	ses-01	968
sub-015	2	354	crossed	same	same	100	right	lower	right	lower	1	443	ses-01	969
sub-015	2	355	crossed	same	different	800	right	lower	right	upper	1	582	ses-01	970
sub-015	2	356	crossed	same	same	300	left	lower	left	lower	1	578	ses-01	971
sub-015	2	357	crossed	different	different	300	right	upper	left	lower	1	877	ses-01	972
sub-015	2	358	crossed	different	different	50	right	lower	left	upper	1	533	ses-01	973
sub-015	2	359	crossed	same	same	50	left	lower	left	lower	1	483	ses-01	974
sub-015	2	360	crossed	different	same	800	right	lower	left	lower	1	798	ses-01	975
sub-015	2	361	crossed	same	same	300	right	lower	right	lower	1	646	ses-01	976
sub-015	2	362	crossed	same	different	50	left	upper	left	lower	1	510	ses-01	977
sub-015	2	363	crossed	same	same	300	right	lower	right	lower	1	538	ses-01	978
sub-015	2	364	crossed	same	different	100	right	upper	right	lower	1	432	ses-01	979
sub-015	2	365	crossed	same	same	300	right	lower	right	lower	1	518	ses-01	980
sub-015	2	366	crossed	different	same	300	right	lower	left	lower	1	752	ses-01	981
sub-015	2	367	crossed	same	different	300	right	lower	right	upper	1	538	ses-01	982
sub-015	2	368	crossed	same	different	300	left	lower	left	upper	1	598	ses-01	983
sub-015	2	369	crossed	different	same	100	left	lower	right	lower	1	645	ses-01	984
sub-015	2	370	crossed	different	different	50	left	lower	right	upper	0	601	ses-01	985
sub-015	2	371	crossed	same	different	800	right	lower	right	upper	1	508	ses-01	986
sub-015	2	372	crossed	different	same	50	left	lower	right	lower	1	752	ses-01	987
sub-015	2	373	crossed	same	different	300	right	lower	right	upper	1	641	ses-01	988
sub-015	2	374	crossed	different	different	800	left	upper	right	lower	1	712	ses-01	989
sub-015	2	375	crossed	same	same	50	left	lower	left	lower	1	585	ses-01	990
sub-015	2	376	crossed	same	different	300	right	upper	right	lower	1	632	ses-01	991
sub-015	2	377	crossed	different	different	300	right	upper	left	lower	1	754	ses-01	992
sub-015	2	378	crossed	same	same	100	right	lower	right	lower	1	523	ses-01	993
sub-015	2	379	crossed	different	different	50	right	lower	left	upper	1	605	ses-01	994
sub-015	2	380	crossed	same	different	300	left	upper	left	lower	1	936	ses-01	995
sub-015	2	381	crossed	different	same	50	right	lower	left	lower	1	715	ses-01	996
sub-015	2	382	crossed	different	same	800	right	lower	left	lower	1	1123	ses-01	997
sub-015	2	383	crossed	same	same	800	left	lower	left	lower	1	784	ses-01	998
sub-015	2	384	crossed	different	same	100	right	lower	left	lower	1	541	ses-01	999
sub-015	2	385	crossed	same	same	50	left	lower	left	lower	1	871	ses-01	1000
sub-015	2	386	crossed	same	different	300	left	lower	left	upper	1	619	ses-01	1001
sub-015	2	387	crossed	different	different	800	left	lower	right	upper	1	544	ses-01	1002
sub-015	2	388	crossed	same	same	50	right	lower	right	lower	1	497	ses-01	1003
sub-015	2	389	crossed	same	different	800	left	upper	left	lower	1	974	ses-01	1004
sub-015	2	390	crossed	same	same	800	right	lower	right	lower	1	669	ses-01	1005
sub-015	2	391	crossed	same	different	50	left	upper	left	lower	1	704	ses-01	1006
sub-015	1	1	uncrossed	same	different	50	right	upper	right	lower	1	526	ses-01	1007
sub-015	1	2	uncrossed	different	different	800	right	lower	left	upper	1	1026	ses-01	1008
sub-015	1	3	uncrossed	same	different	50	left	lower	left	upper	1	1814	ses-01	1009
sub-015	1	4	uncrossed	different	same	300	left	lower	right	lower	1	901	ses-01	1010
sub-015	1	5	uncrossed	same	different	100	left	upper	left	lower	1	1619	ses-01	1011
sub-015	1	6	uncrossed	different	different	50	right	upper	left	lower	1	764	ses-01	1012
sub-015	1	7	uncrossed	different	different	100	left	upper	right	lower	1	792	ses-01	1013
sub-015	1	8	uncrossed	same	same	50	right	lower	right	lower	1	795	ses-01	1014
sub-015	1	9	uncrossed	same	same	800	right	lower	right	lower	1	1330	ses-01	1015
sub-015	1	10	uncrossed	different	different	50	left	upper	right	lower	1	814	ses-01	1016
sub-015	1	11	uncrossed	same	different	800	right	upper	right	lower	1	1355	ses-01	1017
sub-015	1	12	uncrossed	same	same	300	left	lower	left	lower	1	1108	ses-01	1018
sub-015	1	13	uncrossed	different	same	300	left	lower	right	lower	1	767	ses-01	1019
sub-015	1	14	uncrossed	same	same	800	right	lower	right	lower	1	1065	ses-01	1020
sub-015	1	15	uncrossed	same	different	800	right	lower	right	upper	1	968	ses-01	1021
sub-015	1	16	uncrossed	same	different	800	left	lower	left	upper	1	729	ses-01	1022
sub-015	1	17	uncrossed	different	different	50	left	lower	right	upper	1	1055	ses-01	1023
sub-015	1	18	uncrossed	different	different	800	right	upper	left	lower	1	1795	ses-01	1024
sub-015	1	19	uncrossed	same	different	800	left	upper	left	lower	1	1099	ses-01	1025
sub-015	1	20	uncrossed	different	same	300	right	lower	left	lower	1	1155	ses-01	1026
sub-015	1	21	uncrossed	different	different	50	right	lower	left	upper	1	898	ses-01	1027
sub-015	1	22	uncrossed	same	different	300	right	upper	right	lower	1	919	ses-01	1028
sub-015	1	23	uncrossed	different	different	50	right	upper	left	lower	1	1917	ses-01	1029
sub-015	1	24	uncrossed	same	different	800	right	lower	right	upper	1	788	ses-01	1030
sub-015	1	25	uncrossed	different	same	100	right	lower	left	lower	1	924	ses-01	1031
sub-015	1	26	uncrossed	same	same	100	right	lower	right	lower	1	1192	ses-01	1032
sub-015	1	27	uncrossed	same	different	800	left	upper	left	lower	1	1052	ses-01	1033
sub-015	1	28	uncrossed	same	same	300	left	lower	left	lower	1	996	ses-01	1034
sub-015	1	29	uncrossed	different	same	100	right	lower	left	lower	1	761	ses-01	1035
sub-015	1	30	uncrossed	different	different	100	left	lower	right	upper	1	728	ses-01	1036
sub-015	1	31	uncrossed	same	different	300	left	lower	left	upper	1	748	ses-01	1037
sub-015	1	32	uncrossed	same	different	50	right	lower	right	upper	1	1204	ses-01	1038
sub-015	1	33	uncrossed	same	different	50	right	upper	right	lower	1	743	ses-01	1039
sub-015	1	34	uncrossed	different	different	300	left	lower	right	upper	1	733	ses-01	1040
sub-015	1	35	uncrossed	different	same	800	left	lower	right	lower	1	1006	ses-01	1041
sub-015	1	36	uncrossed	same	different	50	right	lower	right	upper	1	830	ses-01	1042
sub-015	1	37	uncrossed	same	different	300	left	lower	left	upper	1	730	ses-01	1043
sub-015	1	38	uncrossed	different	same	800	right	lower	left	lower	1	750	ses-01	1044
sub-015	1	39	uncrossed	same	different	50	right	lower	right	upper	1	1036	ses-01	1045
sub-015	1	40	uncrossed	different	different	300	left	upper	right	lower	1	664	ses-01	1046
sub-015	1	41	uncrossed	same	different	100	left	lower	left	upper	1	917	ses-01	1047
sub-015	1	42	uncrossed	same	different	50	right	lower	right	upper	1	713	ses-01	1048
sub-015	1	43	uncrossed	same	different	50	left	upper	left	lower	1	690	ses-01	1049
sub-015	1	44	uncrossed	different	same	100	right	lower	left	lower	1	750	ses-01	1050
sub-015	1	45	uncrossed	different	same	800	left	lower	right	lower	1	944	ses-01	1051
sub-015	1	46	uncrossed	same	different	50	left	upper	left	lower	1	742	ses-01	1052
sub-015	1	47	uncrossed	different	different	300	right	upper	left	lower	1	697	ses-01	1053
sub-015	1	48	uncrossed	different	same	50	left	lower	right	lower	1	889	ses-01	1054
sub-015	1	49	uncrossed	different	different	300	right	lower	left	upper	1	695	ses-01	1055
sub-015	1	50	uncrossed	same	same	100	right	lower	right	lower	1	812	ses-01	1056
sub-015	1	51	uncrossed	same	different	50	right	upper	right	lower	1	586	ses-01	1057
sub-015	1	52	uncrossed	same	different	50	right	upper	right	lower	1	509	ses-01	1058
sub-015	1	53	uncrossed	different	same	300	left	lower	right	lower	1	675	ses-01	1059
sub-015	1	54	uncrossed	different	different	100	right	lower	left	upper	1	794	ses-01	1060
sub-015	1	55	uncrossed	different	different	100	right	upper	left	lower	1	499	ses-01	1061
sub-015	1	56	uncrossed	same	same	100	right	lower	right	lower	1	874	ses-01	1062
sub-015	1	57	uncrossed	same	different	100	right	lower	right	upper	1	608	ses-01	1063
sub-015	1	58	uncrossed	same	different	100	right	upper	right	lower	1	626	ses-01	1064
sub-015	1	59	uncrossed	different	different	50	right	lower	left	upper	1	788	ses-01	1065
sub-015	1	60	uncrossed	different	same	50	right	lower	left	lower	1	580	ses-01	1066
sub-015	1	61	uncrossed	same	different	100	right	lower	right	upper	1	561	ses-01	1067
sub-015	1	62	uncrossed	different	different	800	left	upper	right	lower	1	650	ses-01	1068
sub-015	1	63	uncrossed	same	same	300	right	lower	right	lower	0	702	ses-01	1069
sub-015	1	64	uncrossed	different	different	100	left	lower	right	upper	1	675	ses-01	1070
sub-015	1	65	uncrossed	different	same	300	right	lower	left	lower	1	599	ses-01	1071
sub-015	1	66	uncrossed	different	same	50	left	lower	right	lower	1	614	ses-01	1072
sub-015	1	67	uncrossed	same	same	50	right	lower	right	lower	0	603	ses-01	1073
sub-015	1	68	uncrossed	same	different	800	left	lower	left	upper	1	697	ses-01	1074
sub-015	1	69	uncrossed	same	same	100	left	lower	left	lower	1	970	ses-01	1075
sub-015	1	70	uncrossed	same	same	50	left	lower	left	lower	1	626	ses-01	1076
sub-015	1	71	uncrossed	same	different	800	right	upper	right	lower	1	909	ses-01	1077
sub-015	1	72	uncrossed	same	different	100	right	upper	right	lower	1	619	ses-01	1078
sub-015	1	73	uncrossed	different	different	300	left	lower	right	upper	1	674	ses-01	1079
sub-015	1	74	uncrossed	different	same	800	right	lower	left	lower	1	749	ses-01	1080
sub-015	1	75	uncrossed	same	different	800	left	upper	left	lower	1	739	ses-01	1081
sub-015	1	76	uncrossed	different	different	800	right	lower	left	upper	1	796	ses-01	1082
sub-015	1	77	uncrossed	different	same	50	right	lower	left	lower	1	1367	ses-01	1083
sub-015	1	78	uncrossed	different	different	100	right	upper	left	lower	1	958	ses-01	1084
sub-015	1	79	uncrossed	same	different	300	right	lower	right	upper	1	869	ses-01	1085
sub-015	1	80	uncrossed	same	different	800	right	upper	right	lower	1	1426	ses-01	1086
sub-015	1	81	uncrossed	different	same	50	left	lower	right	lower	1	715	ses-01	1087
sub-015	1	82	uncrossed	different	different	100	right	upper	left	lower	1	815	ses-01	1088
sub-015	1	83	uncrossed	different	different	800	left	upper	right	lower	1	793	ses-01	1089
sub-015	1	84	uncrossed	different	different	800	right	upper	left	lower	1	658	ses-01	1090
sub-015	1	85	uncrossed	same	different	300	right	upper	right	lower	1	722	ses-01	1091
sub-015	1	86	uncrossed	same	different	300	left	upper	left	lower	1	755	ses-01	1092
sub-015	1	87	uncrossed	same	different	100	left	upper	left	lower	1	678	ses-01	1093
sub-015	1	88	uncrossed	different	same	100	right	lower	left	lower	1	827	ses-01	1094
sub-015	1	89	uncrossed	different	same	100	right	lower	left	lower	1	1321	ses-01	1095
sub-015	1	90	uncrossed	different	different	100	left	upper	right	lower	1	899	ses-01	1096
sub-015	1	91	uncrossed	same	different	50	left	lower	left	upper	1	1019	ses-01	1097
sub-015	1	92	uncrossed	different	different	800	right	upper	left	lower	1	734	ses-01	1098
sub-015	1	93	uncrossed	same	different	800	left	lower	left	upper	1	726	ses-01	1099
sub-015	1	94	uncrossed	same	same	100	left	lower	left	lower	1	1042	ses-01	1100
sub-015	1	95	uncrossed	same	same	800	right	lower	right	lower	1	911	ses-01	1101
sub-015	1	96	uncrossed	different	different	300	right	upper	left	lower	1	830	ses-01	1102
sub-015	1	97	uncrossed	same	same	300	right	lower	right	lower	1	873	ses-01	1103
sub-015	1	98	uncrossed	same	same	100	left	lower	left	lower	1	691	ses-01	1104
sub-015	1	99	uncrossed	same	different	300	left	upper	left	lower	1	797	ses-01	1105
sub-015	1	100	uncrossed	different	different	300	left	upper	right	lower	1	782	ses-01	1106
sub-015	1	101	uncrossed	different	same	50	left	lower	right	lower	1	733	ses-01	1107
sub-015	1	102	uncrossed	different	different	50	left	upper	right	lower	1	630	ses-01	1108
sub-015	1	103	uncrossed	same	different	300	left	lower	left	upper	1	727	ses-01	1109
sub-015	1	104	uncrossed	same	same	800	left	lower	left	lower	1	1022	ses-01	1110
sub-015	1	105	uncrossed	different	same	300	left	lower	right	lower	1	735	ses-01	1111
sub-015	1	106	uncrossed	same	same	800	left	lower	left	lower	1	666	ses-01	1112
sub-015	1	107	uncrossed	different	different	300	left	lower	right	upper	1	694	ses-01	1113
sub-015	1	108	uncrossed	different	different	100	right	upper	left	lower	1	971	ses-01	1114
sub-015	1	109	uncrossed	same	same	50	left	lower	left	lower	1	678	ses-01	1115
sub-015	1	110	uncrossed	different	same	300	left	lower	right	lower	1	741	ses-01	1116
sub-015	1	111	uncrossed	different	same	800	left	lower	right	lower	1	578	ses-01	1117
sub-015	1	112	uncrossed	different	same	50	left	lower	right	lower	1	695	ses-01	1118
sub-015	1	113	uncrossed	different	same	100	right	lower	left	lower	1	619	ses-01	1119
sub-015	1	114	uncrossed	different	same	800	left	lower	right	lower	1	586	ses-01	1120
sub-015	1	115	uncrossed	same	same	100	left	lower	left	lower	1	701	ses-01	1121
sub-015	1	116	uncrossed	same	different	100	left	lower	left	upper	1	653	ses-01	1122
sub-015	1	117	uncrossed	same	same	100	left	lower	left	lower	1	553	ses-01	1123
sub-015	1	118	uncrossed	different	same	100	right	lower	left	lower	1	640	ses-01	1124
sub-015	1	119	uncrossed	same	different	300	right	upper	right	lower	1	1373	ses-01	1125
sub-015	1	120	uncrossed	different	different	50	right	upper	left	lower	1	660	ses-01	1126
sub-015	1	121	uncrossed	different	same	300	left	lower	right	lower	1	691	ses-01	1127
sub-015	1	122	uncrossed	same	different	50	left	upper	left	lower	1	648	ses-01	1128
sub-015	1	123	uncrossed	same	same	50	left	lower	left	lower	1	718	ses-01	1129
sub-015	1	124	uncrossed	different	different	800	right	lower	left	upper	1	689	ses-01	1130
sub-015	1	125	uncrossed	different	same	50	right	lower	left	lower	1	1215	ses-01	1131
sub-015	1	126	uncrossed	different	different	50	left	upper	right	lower	1	672	ses-01	1132
sub-015	1	127	uncrossed	same	different	800	right	lower	right	upper	1	787	ses-01	1133
sub-015	1	128	uncrossed	same	different	800	right	upper	right	lower	1	799	ses-01	1134
sub-015	1	129	uncrossed	same	same	100	right	lower	right	lower	1	646	ses-01	1135
sub-015	1	130	uncrossed	same	same	300	left	lower	left	lower	1	686	ses-01	1136
sub-015	1	131	uncrossed	same	same	300	left	lower	left	lower	1	598	ses-01	1137
sub-015	1	132	uncrossed	same	same	50	left	lower	left	lower	1	618	ses-01	1138
sub-015	1	133	uncrossed	same	different	50	right	upper	right	lower	1	556	ses-01	1139
sub-015	1	134	uncrossed	different	different	100	left	upper	right	lower	1	739	ses-01	1140
sub-015	1	135	uncrossed	same	different	800	right	upper	right	lower	1	1284	ses-01	1141
sub-015	1	136	uncrossed	different	same	50	right	lower	left	lower	1	756	ses-01	1142
sub-015	1	137	uncrossed	same	same	300	left	lower	left	lower	0	1080	ses-01	1143
sub-015	1	138	uncrossed	different	same	100	right	lower	left	lower	1	1379	ses-01	1144
sub-015	1	139	uncrossed	different	same	800	right	lower	left	lower	1	953	ses-01	1145
sub-015	1	140	uncrossed	different	same	100	left	lower	right	lower	1	1066	ses-01	1146
sub-015	1	141	uncrossed	different	different	50	left	lower	right	upper	1	706	ses-01	1147
sub-015	1	142	uncrossed	same	different	50	left	lower	left	upper	1	747	ses-01	1148
sub-015	1	143	uncrossed	different	same	50	left	lower	right	lower	1	743	ses-01	1149
sub-015	1	144	uncrossed	same	different	100	right	upper	right	lower	1	816	ses-01	1150
sub-015	1	145	uncrossed	same	different	300	right	lower	right	upper	1	701	ses-01	1151
sub-015	1	146	uncrossed	same	different	50	right	lower	right	upper	1	616	ses-01	1152
sub-015	1	147	uncrossed	different	same	300	left	lower	right	lower	1	598	ses-01	1153
sub-015	1	148	uncrossed	different	same	800	right	lower	left	lower	1	590	ses-01	1154
sub-015	1	149	uncrossed	same	different	50	left	upper	left	lower	1	698	ses-01	1155
sub-015	1	150	uncrossed	different	same	300	left	lower	right	lower	1	802	ses-01	1156
sub-015	1	151	uncrossed	same	different	50	left	upper	left	lower	1	1243	ses-01	1157
sub-015	1	152	uncrossed	same	same	50	left	lower	left	lower	1	667	ses-01	1158
sub-015	1	153	uncrossed	same	same	800	right	lower	right	lower	1	706	ses-01	1159
sub-015	1	154	uncrossed	same	different	300	left	lower	left	upper	1	634	ses-01	1160
sub-015	1	155	uncrossed	different	different	50	right	lower	left	upper	1	722	ses-01	1161
sub-015	1	156	uncrossed	same	same	800	right	lower	right	lower	1	660	ses-01	1162
sub-015	1	157	uncrossed	different	same	100	left	lower	right	lower	1	677	ses-01	1163
sub-015	1	158	uncrossed	different	different	800	left	lower	right	upper	1	1327	ses-01	1164
sub-015	1	159	uncrossed	same	same	100	right	lower	right	lower	1	670	ses-01	1165
sub-015	1	160	uncrossed	different	different	100	left	lower	right	upper	1	1217	ses-01	1166
sub-015	1	161	uncrossed	different	same	50	right	lower	left	lower	1	787	ses-01	1167
sub-015	1	162	uncrossed	same	same	800	right	lower	right	lower	1	891	ses-01	1168
sub-015	1	163	uncrossed	different	same	100	left	lower	right	lower	1	801	ses-01	1169
sub-015	1	164	uncrossed	same	different	50	left	lower	left	upper	1	690	ses-01	1170
sub-015	1	165	uncrossed	different	same	300	right	lower	left	lower	1	855	ses-01	1171
sub-015	1	166	uncrossed	same	same	100	left	lower	left	lower	1	667	ses-01	1172
sub-015	1	167	uncrossed	same	same	300	right	lower	right	lower	1	861	ses-01	1173
sub-015	1	168	uncrossed	different	different	100	right	upper	left	lower	1	645	ses-01	1174
sub-015	1	169	uncrossed	different	same	800	right	lower	left	lower	1	634	ses-01	1175
sub-015	1	170	uncrossed	different	same	300	right	lower	left	lower	1	590	ses-01	1176
sub-015	1	171	uncrossed	different	same	50	right	lower	left	lower	1	1199	ses-01	1177
sub-015	1	172	uncrossed	same	different	50	left	lower	left	upper	1	728	ses-01	1178
sub-015	1	173	uncrossed	different	different	50	right	upper	left	lower	1	690	ses-01	1179
sub-015	1	174	uncrossed	same	same	100	left	lower	left	lower	1	706	ses-01	1180
sub-015	1	175	uncrossed	different	different	100	left	upper	right	lower	1	722	ses-01	1181
sub-015	1	176	uncrossed	different	same	100	left	lower	right	lower	1	761	ses-01	1182
sub-015	1	177	uncrossed	same	same	50	left	lower	left	lower	1	622	ses-01	1183
sub-015	1	178	uncrossed	different	different	50	right	lower	left	upper	1	698	ses-01	1184
sub-015	1	179	uncrossed	different	different	800	left	lower	right	upper	1	790	ses-01	1185
sub-015	1	180	uncrossed	different	same	300	right	lower	left	lower	1	707	ses-01	1186
sub-015	1	181	uncrossed	same	different	800	left	lower	left	upper	1	751	ses-01	1187
sub-015	1	182	uncrossed	different	different	300	right	lower	left	upper	1	1083	ses-01	1188
sub-015	1	183	uncrossed	same	same	800	left	lower	left	lower	1	1284	ses-01	1189
sub-015	1	184	uncrossed	different	different	50	left	upper	right	lower	1	707	ses-01	1190
sub-015	1	185	uncrossed	same	different	800	right	lower	right	upper	1	743	ses-01	1191
sub-015	1	186	uncrossed	different	same	100	left	lower	right	lower	1	746	ses-01	1192
sub-015	1	187	uncrossed	different	different	800	left	upper	right	lower	1	744	ses-01	1193
sub-015	1	188	uncrossed	same	same	50	right	lower	right	lower	1	730	ses-01	1194
sub-015	1	189	uncrossed	different	same	100	right	lower	left	lower	1	1108	ses-01	1195
sub-015	1	190	uncrossed	same	different	800	left	lower	left	upper	1	691	ses-01	1196
sub-015	1	191	uncrossed	same	different	300	right	upper	right	lower	1	865	ses-01	1197
sub-015	1	192	uncrossed	same	same	100	right	lower	right	lower	1	745	ses-01	1198
sub-015	1	193	uncrossed	same	different	300	left	upper	left	lower	1	835	ses-01	1199
sub-015	1	194	uncrossed	same	same	300	right	lower	right	lower	1	596	ses-01	1200
sub-015	1	195	uncrossed	same	different	300	left	upper	left	lower	1	621	ses-01	1201
sub-015	1	196	uncrossed	same	same	800	right	lower	right	lower	1	621	ses-01	1202
sub-015	1	197	uncrossed	different	different	50	left	lower	right	upper	1	709	ses-01	1203
sub-015	1	198	uncrossed	different	different	800	right	lower	left	upper	1	1536	ses-01	1204
sub-015	1	199	uncrossed	different	same	100	left	lower	right	lower	1	755	ses-01	1205
sub-015	1	200	uncrossed	different	different	300	left	lower	right	upper	1	1220	ses-01	1206
sub-015	1	201	uncrossed	different	different	50	right	upper	left	lower	1	575	ses-01	1207
sub-015	1	202	uncrossed	same	same	300	left	lower	left	lower	1	1216	ses-01	1208
sub-015	1	203	uncrossed	different	same	100	left	lower	right	lower	1	723	ses-01	1209
sub-015	1	204	uncrossed	same	same	50	right	lower	right	lower	1	677	ses-01	1210
sub-015	1	205	uncrossed	different	different	300	right	lower	left	upper	1	716	ses-01	1211
sub-015	1	206	uncrossed	different	different	300	right	lower	left	upper	1	510	ses-01	1212
sub-015	1	207	uncrossed	same	same	100	left	lower	left	lower	1	752	ses-01	1213
sub-015	1	208	uncrossed	same	same	50	right	lower	right	lower	1	606	ses-01	1214
sub-015	1	209	uncrossed	same	same	800	right	lower	right	lower	1	759	ses-01	1215
sub-015	1	210	uncrossed	different	same	300	left	lower	right	lower	1	745	ses-01	1216
sub-015	1	211	uncrossed	different	same	50	right	lower	left	lower	1	686	ses-01	1217
sub-015	1	212	uncrossed	different	different	300	left	upper	right	lower	1	653	ses-01	1218
sub-015	1	213	uncrossed	same	same	300	right	lower	right	lower	1	811	ses-01	1219
sub-015	1	214	uncrossed	same	same	100	right	lower	right	lower	1	899	ses-01	1220
sub-015	1	215	uncrossed	same	same	50	right	lower	right	lower	1	601	ses-01	1221
sub-015	1	216	uncrossed	different	same	800	right	lower	left	lower	1	694	ses-01	1222
sub-015	1	217	uncrossed	different	same	100	left	lower	right	lower	1	1260	ses-01	1223
sub-015	1	218	uncrossed	same	same	800	left	lower	left	lower	1	664	ses-01	1224
sub-015	1	219	uncrossed	different	same	300	left	lower	right	lower	1	599	ses-01	1225
sub-015	1	220	uncrossed	different	same	300	right	lower	left	lower	1	580	ses-01	1226
sub-015	1	221	uncrossed	different	different	300	right	lower	left	upper	1	609	ses-01	1227
sub-015	1	222	uncrossed	different	different	800	right	upper	left	lower	1	907	ses-01	1228
sub-015	1	223	uncrossed	same	different	300	left	lower	left	upper	0	685	ses-01	1229
sub-015	1	224	uncrossed	same	same	100	right	lower	right	lower	1	663	ses-01	1230
sub-015	1	225	uncrossed	different	same	800	right	lower	left	lower	1	1004	ses-01	1231
