participant_id	run	trial_in_run	posture	stim_side	stim_segment	soa	tactor1side	tactor1segment	tactor2side	tactor2segment	response_correct	rt	session	trial
sub-13	1	1	crossed	different	same	800	left	lower	right	lower	1	1113	ses-1	1
sub-13	1	2	crossed	same	same	100	left	lower	left	lower	1	752	ses-1	2
sub-13	1	3	crossed	different	different	800	right	lower	left	upper	1	483	ses-1	3
sub-13	1	4	crossed	different	same	100	right	lower	left	lower	0	1127	ses-1	4
sub-13	1	5	crossed	same	same	800	left	lower	left	lower	1	830	ses-1	5
sub-13	1	6	crossed	different	different	50	left	upper	right	lower	1	1046	ses-1	6
sub-13	1	7	crossed	different	different	100	right	lower	left	upper	1	1278	ses-1	7
sub-13	1	8	crossed	different	different	100	right	upper	left	lower	1	949	ses-1	8
sub-13	1	9	crossed	different	different	50	left	upper	right	lower	1	1036	ses-1	9
sub-13	1	10	crossed	different	same	50	left	lower	right	lower	1	1315	ses-1	10
sub-13	1	11	crossed	same	same	300	left	lower	left	lower	0	468	ses-1	11
sub-13	1	12	crossed	same	different	100	right	upper	right	lower	1	838	ses-1	12
sub-13	1	13	crossed	same	different	100	right	lower	right	upper	1	494	ses-1	13
sub-13	1	14	crossed	same	same	800	right	lower	right	lower	1	526	ses-1	14
sub-13	1	15	crossed	different	different	300	right	upper	left	lower	1	974	ses-1	15
sub-13	1	16	crossed	same	different	100	right	lower	right	upper	1	667	ses-1	16
sub-13	1	17	crossed	same	same	50	left	lower	left	lower	1	857	ses-1	17
sub-13	1	18	crossed	same	same	800	right	lower	right	lower	1	701	ses-1	18
sub-13	1	19	crossed	different	different	300	left	upper	right	lower	1	1079	ses-1	19
sub-13	1	20	crossed	same	different	300	right	lower	right	upper	1	1076	ses-1	20
sub-13	1	21	crossed	same	same	50	left	lower	left	lower	1	782	ses-1	21
sub-13	1	22	crossed	same	different	800	right	upper	right	lower	1	807	ses-1	22
sub-13	1	23	crossed	same	different	300	right	upper	right	lower	1	476	ses-1	23
sub-13	1	24	crossed	same	same	800	right	lower	right	lower	1	498	ses-1	24
sub-13	1	25	crossed	different	different	800	right	upper	left	lower	1	646	ses-1	25
sub-13	1	26	crossed	same	same	300	left	lower	left	lower	1	628	ses-1	26
sub-13	1	27	crossed	same	same	800	right	lower	right	lower	1	581	ses-1	27
sub-13	1	28	crossed	same	different	800	left	lower	left	upper	0	374	ses-1	28
sub-13	1	29	crossed	different	same	100	right	lower	left	lower	0	1504	ses-1	29
sub-13	1	30	crossed	different	different	50	left	lower	right	upper	0	1613	ses-1	30
sub-13	1	31	crossed	different	same	50	left	lower	right	lower	0	1581	ses-1	31
sub-13	1	32	crossed	different	same	50	left	lower	right	lower	0	1785	ses-1	32
sub-13	1	33	crossed	same	same	50	right	lower	right	lower	1	610	ses-1	33
sub-13	1	34	crossed	different	same	800	right	lower	left	lower	1	970	ses-1	34
sub-13	1	35	crossed	different	same	300	left	lower	right	lower	0	1619	ses-1	35
sub-13	1	36	crossed	different	different	300	left	lower	right	upper	0	903	ses-1	36
sub-13	1	37	crossed	different	different	300	right	lower	left	upper	1	752	ses-1	37
sub-13	1	38	crossed	same	same	50	left	lower	left	lower	1	997	ses-1	38
sub-13	1	39	crossed	same	different	100	right	lower	right	upper	1	555	ses-1	39
sub-13	1	40	crossed	same	different	300	right	upper	right	lower	1	507	ses-1	40
sub-13	1	41	crossed	different	different	800	left	upper	right	lower	1	956	ses-1	41
sub-13	1	42	crossed	same	same	50	left	lower	left	lower	1	760	ses-1	42
sub-13	1	43	crossed	different	same	100	right	lower	left	lower	0	1270	ses-1	43
sub-13	1	44	crossed	different	different	50	left	upper	right	lower	0	818	ses-1	44
sub-13	1	45	crossed	same	different	300	right	upper	right	lower	1	1359	ses-1	45
sub-13	1	46	crossed	same	same	800	left	lower	left	lower	1	578	ses-1	46
sub-13	1	47	crossed	different	same	50	left	lower	right	lower	1	1660	ses-1	47
sub-13	1	48	crossed	same	same	100	left	lower	left	lower	1	438	ses-1	48
sub-13	1	49	crossed	different	same	50	right	lower	left	lower	0	1826	ses-1	49
sub-13	1	50	crossed	same	different	800	right	upper	right	lower	1	822	ses-1	50
sub-13	1	51	crossed	different	same	100	left	lower	right	lower	0	1528	ses-1	51
sub-13	1	52	crossed	different	different	800	left	upper	right	lower	1	1149	ses-1	52
sub-13	1	53	crossed	different	different	50	right	upper	left	lower	1	987	ses-1	53
sub-13	1	54	crossed	same	same	300	right	lower	right	lower	1	585	ses-1	54
sub-13	1	55	crossed	same	different	800	right	upper	right	lower	1	425	ses-1	55
sub-13	1	56	crossed	same	different	300	left	lower	left	upper	0	1930	ses-1	56
sub-13	1	57	crossed	different	different	50	right	upper	left	lower	0	1434	ses-1	57
sub-13	1	58	crossed	different	same	800	right	lower	left	lower	1	1412	ses-1	58
sub-13	1	59	crossed	different	same	300	left	lower	right	lower	1	1306	ses-1	59
sub-13	1	60	crossed	different	same	50	left	lower	right	lower	0	945	ses-1	60
sub-13	1	61	crossed	same	same	800	right	lower	right	lower	1	600	ses-1	61
sub-13	1	62	crossed	same	different	50	left	upper	left	lower	1	550	ses-1	62
sub-13	1	63	crossed	different	different	100	right	upper	left	lower	0	1480	ses-1	63
sub-13	1	64	crossed	same	same	50	right	lower	right	lower	1	561	ses-1	64
sub-13	1	65	crossed	different	different	100	left	lower	right	upper	1	1302	ses-1	65
sub-13	1	66	crossed	same	different	800	left	lower	left	upper	1	1032	ses-1	66
sub-13	1	67	crossed	different	same	50	right	lower	left	lower	1	1903	ses-1	67
sub-13	1	68	crossed	different	same	800	left	lower	right	lower	1	444	ses-1	68
sub-13	1	69	crossed	different	different	800	right	upper	left	lower	1	443	ses-1	69
sub-13	1	70	crossed	different	same	100	right	lower	left	lower	0	443	ses-1	70
sub-13	1	71	crossed	same	different	300	right	lower	right	upper	1	901	ses-1	71
sub-13	1	72	crossed	different	different	300	right	upper	left	lower	1	699	ses-1	72
sub-13	1	73	crossed	same	different	100	left	lower	left	upper	1	1192	ses-1	73
sub-13	1	74	crossed	different	same	300	left	lower	right	lower	1	1244	ses-1	74
sub-13	1	75	crossed	same	different	50	right	upper	right	lower	1	705	ses-1	75
sub-13	1	76	crossed	different	different	800	left	lower	right	upper	1	657	ses-1	76
sub-13	1	78	crossed	same	same	300	right	lower	right	lower	1	655	ses-1	77
sub-13	1	79	crossed	different	different	800	right	lower	left	upper	1	497	ses-1	78
sub-13	1	80	crossed	same	same	800	right	lower	right	lower	1	769	ses-1	79
sub-13	1	81	crossed	different	different	50	left	lower	right	upper	1	1041	ses-1	80
sub-13	1	82	crossed	same	same	100	left	lower	left	lower	1	1112	ses-1	81
sub-13	1	83	crossed	same	different	50	left	lower	left	upper	1	461	ses-1	82
sub-13	1	84	crossed	different	same	100	right	lower	left	lower	1	632	ses-1	83
sub-13	1	85	crossed	same	same	100	right	lower	right	lower	0	1213	ses-1	84
sub-13	1	86	crossed	same	same	50	left	lower	left	lower	1	726	ses-1	85
sub-13	1	87	crossed	different	different	300	left	upper	right	lower	1	1156	ses-1	86
sub-13	1	88	crossed	same	same	50	left	lower	left	lower	1	516	ses-1	87
sub-13	1	89	crossed	different	same	300	right	lower	left	lower	1	688	ses-1	88
sub-13	1	90	crossed	different	different	800	right	lower	left	upper	1	542	ses-1	89
sub-13	1	91	crossed	different	different	800	left	upper	right	lower	1	623	ses-1	90
sub-13	1	92	crossed	same	different	100	right	lower	right	upper	1	861	ses-1	91
sub-13	1	93	crossed	same	different	100	left	upper	left	lower	1	784	ses-1	92
sub-13	1	94	crossed	different	same	800	left	lower	right	lower	1	790	ses-1	93
sub-13	1	96	crossed	different	different	100	left	lower	right	upper	1	885	ses-1	94
sub-13	1	97	crossed	different	same	50	left	lower	right	lower	1	822	ses-1	95
sub-13	1	98	crossed	same	same	800	right	lower	right	lower	1	943	ses-1	96
sub-13	1	99	crossed	different	same	50	left	lower	right	lower	0	1559	ses-1	97
sub-13	1	100	crossed	same	same	50	left	lower	left	lower	1	474	ses-1	98
sub-13	1	101	crossed	same	same	800	right	lower	right	lower	1	786	ses-1	99
sub-13	1	102	crossed	same	same	50	right	lower	right	lower	1	548	ses-1	100
sub-13	1	103	crossed	same	same	100	right	lower	right	lower	1	689	ses-1	101
sub-13	1	104	crossed	different	same	100	left	lower	right	lower	0	1363	ses-1	102
sub-13	1	105	crossed	same	different	800	left	lower	left	upper	1	535	ses-1	103
sub-13	1	106	crossed	different	different	800	right	upper	left	lower	1	653	ses-1	104
sub-13	1	107	crossed	same	same	300	right	lower	right	lower	1	548	ses-1	105
sub-13	1	108	crossed	different	different	300	left	lower	right	upper	1	794	ses-1	106
sub-13	1	109	crossed	different	same	300	left	lower	right	lower	0	1375	ses-1	107
sub-13	1	110	crossed	same	different	800	left	upper	left	lower	1	635	ses-1	108
sub-13	1	111	crossed	different	different	50	right	upper	left	lower	1	603	ses-1	109
sub-13	1	112	crossed	different	different	100	left	upper	right	lower	0	1111	ses-1	110
sub-13	1	113	crossed	different	same	300	left	lower	right	lower	1	681	ses-1	111
sub-13	1	114	crossed	different	same	800	left	lower	right	lower	1	583	ses-1	112
sub-13	1	115	crossed	different	same	300	right	lower	left	lower	1	530	ses-1	113
sub-13	1	116	crossed	same	same	100	right	lower	right	lower	1	1702	ses-1	114
sub-13	1	117	crossed	different	different	50	left	upper	right	lower	0	965	ses-1	115
sub-13	1	118	crossed	different	same	800	left	lower	right	lower	1	1657	ses-1	116
sub-13	1	119	crossed	different	different	800	right	lower	left	upper	1	517	ses-1	117
sub-13	1	120	crossed	same	same	50	right	lower	right	lower	1	1509	ses-1	118
sub-13	1	121	crossed	different	same	50	right	lower	left	lower	1	672	ses-1	119
sub-13	1	122	crossed	same	different	300	right	lower	right	upper	1	845	ses-1	120
sub-13	1	123	crossed	different	different	800	right	upper	left	lower	1	808	ses-1	121
sub-13	1	124	crossed	different	different	50	left	lower	right	upper	1	723	ses-1	122
sub-13	1	125	crossed	different	same	100	right	lower	left	lower	1	605	ses-1	123
sub-13	1	126	crossed	same	different	50	right	lower	right	upper	0	538	ses-1	124
sub-13	1	127	crossed	different	same	800	right	lower	left	lower	1	863	ses-1	125
sub-13	1	128	crossed	same	different	100	left	lower	left	upper	1	1022	ses-1	126
sub-13	1	129	crossed	different	same	300	left	lower	right	lower	1	1579	ses-1	127
sub-13	1	130	crossed	same	different	800	right	lower	right	upper	1	755	ses-1	128
sub-13	1	131	crossed	same	same	100	right	lower	right	lower	1	442	ses-1	129
sub-13	1	132	crossed	same	different	300	right	upper	right	lower	1	478	ses-1	130
sub-13	1	133	crossed	different	different	100	right	lower	left	upper	1	968	ses-1	131
sub-13	1	134	crossed	different	same	50	left	lower	right	lower	1	2224	ses-1	132
sub-13	1	135	crossed	same	different	50	left	lower	left	upper	1	678	ses-1	133
sub-13	1	136	crossed	same	different	300	left	upper	left	lower	1	834	ses-1	134
sub-13	1	137	crossed	same	different	50	right	lower	right	upper	1	792	ses-1	135
sub-13	1	138	crossed	same	different	100	left	lower	left	upper	1	768	ses-1	136
sub-13	1	139	crossed	same	same	100	right	lower	right	lower	1	1203	ses-1	137
sub-13	1	140	crossed	same	different	100	left	upper	left	lower	1	523	ses-1	138
sub-13	1	141	crossed	same	different	800	right	lower	right	upper	1	509	ses-1	139
sub-13	1	142	crossed	different	different	300	right	upper	left	lower	1	616	ses-1	140
sub-13	1	143	crossed	different	different	800	left	upper	right	lower	0	1610	ses-1	141
sub-13	1	144	crossed	different	different	300	right	lower	left	upper	1	1016	ses-1	142
sub-13	1	146	crossed	same	same	300	left	lower	left	lower	1	541	ses-1	143
sub-13	1	147	crossed	different	same	100	right	lower	left	lower	0	1324	ses-1	144
sub-13	1	148	crossed	same	different	300	left	lower	left	upper	1	672	ses-1	145
sub-13	1	149	crossed	different	same	100	right	lower	left	lower	0	646	ses-1	146
sub-13	1	150	crossed	same	same	100	left	lower	left	lower	1	462	ses-1	147
sub-13	1	151	crossed	different	different	300	left	upper	right	lower	1	1370	ses-1	148
sub-13	1	152	crossed	different	same	100	left	lower	right	lower	1	878	ses-1	149
sub-13	1	153	crossed	different	different	300	left	lower	right	upper	1	1031	ses-1	150
sub-13	1	154	crossed	same	same	800	left	lower	left	lower	1	1500	ses-1	151
sub-13	1	155	crossed	different	different	100	left	upper	right	lower	0	1115	ses-1	152
sub-13	1	156	crossed	different	same	300	left	lower	right	lower	1	1190	ses-1	153
sub-13	1	157	crossed	different	same	50	right	lower	left	lower	1	759	ses-1	154
sub-13	1	158	crossed	different	same	800	right	lower	left	lower	1	890	ses-1	155
sub-13	1	159	crossed	different	same	800	left	lower	right	lower	1	1470	ses-1	156
sub-13	1	160	crossed	same	different	300	right	upper	right	lower	1	1001	ses-1	157
sub-13	1	161	crossed	same	different	300	left	upper	left	lower	1	931	ses-1	158
sub-13	1	162	crossed	same	same	100	left	lower	left	lower	1	405	ses-1	159
sub-13	1	163	crossed	same	different	50	left	upper	left	lower	1	366	ses-1	160
sub-13	1	164	crossed	same	different	50	right	lower	right	upper	1	1068	ses-1	161
sub-13	1	165	crossed	different	same	50	right	lower	left	lower	1	1808	ses-1	162
sub-13	1	166	crossed	same	same	300	right	lower	right	lower	1	1038	ses-1	163
sub-13	1	167	crossed	different	different	800	right	upper	left	lower	1	872	ses-1	164
sub-13	1	168	crossed	different	different	100	left	lower	right	upper	1	998	ses-1	165
sub-13	1	169	crossed	same	same	100	right	lower	right	lower	1	1263	ses-1	166
sub-13	1	170	crossed	same	same	100	left	lower	left	lower	1	803	ses-1	167
sub-13	1	171	crossed	different	same	50	right	lower	left	lower	0	1432	ses-1	168
sub-13	1	172	crossed	same	different	300	left	lower	left	upper	1	424	ses-1	169
sub-13	1	173	crossed	same	different	100	right	upper	right	lower	1	983	ses-1	170
sub-13	1	174	crossed	same	different	800	right	lower	right	upper	1	544	ses-1	171
sub-13	1	175	crossed	different	different	800	left	upper	right	lower	1	754	ses-1	172
sub-13	1	176	crossed	different	same	100	right	lower	left	lower	1	1258	ses-1	173
sub-13	1	177	crossed	different	same	800	left	lower	right	lower	1	675	ses-1	174
sub-13	1	178	crossed	different	different	50	right	lower	left	upper	0	1237	ses-1	175
sub-13	1	179	crossed	same	different	800	right	lower	right	upper	1	701	ses-1	176
sub-13	1	180	crossed	different	same	100	left	lower	right	lower	1	1298	ses-1	177
sub-13	1	181	crossed	different	same	300	right	lower	left	lower	1	652	ses-1	178
sub-13	1	182	crossed	same	same	50	right	lower	right	lower	1	886	ses-1	179
sub-13	1	183	crossed	different	different	800	left	upper	right	lower	0	1067	ses-1	180
sub-13	1	184	crossed	same	different	50	left	upper	left	lower	1	496	ses-1	181
sub-13	1	185	crossed	same	different	800	right	lower	right	upper	1	1068	ses-1	182
sub-13	1	186	crossed	same	same	300	right	lower	right	lower	1	861	ses-1	183
sub-13	1	187	crossed	same	same	100	right	lower	right	lower	1	1103	ses-1	184
sub-13	1	188	crossed	different	different	800	left	lower	right	upper	1	965	ses-1	185
sub-13	1	189	crossed	different	same	300	left	lower	right	lower	0	1197	ses-1	186
sub-13	1	190	crossed	same	different	800	left	upper	left	lower	1	863	ses-1	187
sub-13	1	191	crossed	same	different	800	right	upper	right	lower	1	742	ses-1	188
sub-13	1	192	crossed	same	same	800	right	lower	right	lower	1	356	ses-1	189
sub-13	1	193	crossed	same	same	800	left	lower	left	lower	1	2012	ses-1	190
sub-13	1	194	crossed	different	same	800	right	lower	left	lower	0	728	ses-1	191
sub-13	1	195	crossed	same	same	100	right	lower	right	lower	1	710	ses-1	192
sub-13	1	196	crossed	same	different	100	left	lower	left	upper	1	947	ses-1	193
sub-13	1	197	crossed	same	different	100	right	upper	right	lower	1	544	ses-1	194
sub-13	1	198	crossed	same	same	300	left	lower	left	lower	1	740	ses-1	195
sub-13	1	199	crossed	same	same	300	right	lower	right	lower	1	544	ses-1	196
sub-13	1	200	crossed	different	different	800	left	lower	right	upper	1	545	ses-1	197
sub-13	1	201	crossed	same	same	800	left	lower	left	lower	1	499	ses-1	198
sub-13	1	202	crossed	same	different	800	left	upper	left	lower	1	802	ses-1	199
sub-13	1	203	crossed	different	different	300	left	lower	right	upper	1	722	ses-1	200
sub-13	1	204	crossed	same	same	100	right	lower	right	lower	1	652	ses-1	201
sub-13	1	205	crossed	same	same	800	left	lower	left	lower	1	735	ses-1	202
sub-13	1	206	crossed	same	different	100	right	upper	right	lower	1	713	ses-1	203
sub-13	1	207	crossed	different	same	300	right	lower	left	lower	1	1958	ses-1	204
sub-13	1	208	crossed	same	same	800	right	lower	right	lower	1	756	ses-1	205
sub-13	1	209	crossed	same	same	300	left	lower	left	lower	1	704	ses-1	206
sub-13	1	210	crossed	different	different	800	right	upper	left	lower	1	694	ses-1	207
sub-13	1	211	crossed	different	same	800	right	lower	left	lower	1	596	ses-1	208
sub-13	1	212	crossed	different	different	100	left	lower	right	upper	1	1116	ses-1	209
sub-13	1	213	crossed	different	different	300	right	upper	left	lower	1	773	ses-1	210
sub-13	1	214	crossed	same	same	50	left	lower	left	lower	1	637	ses-1	211
sub-13	1	215	crossed	different	same	800	right	lower	left	lower	1	854	ses-1	212
sub-13	1	216	crossed	different	same	800	left	lower	right	lower	1	779	ses-1	213
sub-13	1	217	crossed	same	different	300	left	lower	left	upper	1	626	ses-1	214
sub-13	1	218	crossed	same	same	50	left	lower	left	lower	1	533	ses-1	215
sub-13	1	219	crossed	different	different	50	right	upper	left	lower	1	462	ses-1	216
sub-13	1	220	crossed	same	different	100	left	upper	left	lower	1	437	ses-1	217
sub-13	1	221	crossed	same	same	300	right	lower	right	lower	1	531	ses-1	218
sub-13	1	222	crossed	same	different	800	left	upper	left	lower	1	492	ses-1	219
sub-13	1	223	crossed	same	same	100	left	lower	left	lower	1	379	ses-1	220
sub-13	1	224	crossed	different	same	300	right	lower	left	lower	1	717	ses-1	221
sub-13	1	225	crossed	different	same	300	right	lower	left	lower	1	773	ses-1	222
sub-13	1	226	crossed	different	different	300	left	upper	right	lower	1	1110	ses-1	223
sub-13	1	227	crossed	different	same	300	right	lower	left	lower	1	538	ses-1	224
sub-13	1	228	crossed	same	different	100	right	lower	right	upper	1	707	ses-1	225
sub-13	1	229	crossed	same	same	50	right	lower	right	lower	1	390	ses-1	226
sub-13	1	230	crossed	different	same	100	right	lower	left	lower	1	831	ses-1	227
sub-13	1	231	crossed	same	same	800	right	lower	right	lower	1	628	ses-1	228
sub-13	1	232	crossed	same	same	300	left	lower	left	lower	1	552	ses-1	229
sub-13	1	233	crossed	same	different	50	right	lower	right	upper	1	786	ses-1	230
sub-13	1	234	crossed	same	different	50	right	upper	right	lower	1	405	ses-1	231
sub-13	1	235	crossed	same	same	100	left	lower	left	lower	1	513	ses-1	232
sub-13	1	236	crossed	same	different	100	left	lower	left	upper	1	372	ses-1	233
sub-13	1	237	crossed	same	different	50	right	lower	right	upper	1	582	ses-1	234
sub-13	1	238	crossed	same	different	300	right	lower	right	upper	1	535	ses-1	235
sub-13	1	239	crossed	different	different	100	left	upper	right	lower	1	1879	ses-1	236
sub-13	1	240	crossed	different	same	300	right	lower	left	lower	1	1188	ses-1	237
sub-13	1	241	crossed	different	same	800	right	lower	left	lower	1	777	ses-1	238
sub-13	1	242	crossed	same	same	50	left	lower	left	lower	1	662	ses-1	239
sub-13	1	243	crossed	same	different	100	left	upper	left	lower	1	326	ses-1	240
sub-13	1	244	crossed	same	different	100	right	upper	right	lower	1	850	ses-1	241
sub-13	1	245	crossed	same	different	50	left	upper	left	lower	1	517	ses-1	242
sub-13	1	246	crossed	different	different	100	right	upper	left	lower	1	1483	ses-1	243
sub-13	1	247	crossed	different	same	50	right	lower	left	lower	1	1859	ses-1	244
sub-13	1	248	crossed	same	same	300	left	lower	left	lower	1	1090	ses-1	245
sub-13	1	249	crossed	different	different	50	left	upper	right	lower	1	1374	ses-1	246
sub-13	1	250	crossed	different	same	100	left	lower	right	lower	1	1365	ses-1	247
sub-13	1	251	crossed	different	different	100	right	lower	left	upper	1	1699	ses-1	248
sub-13	1	252	crossed	different	different	100	left	upper	right	lower	0	1373	ses-1	249
sub-13	1	253	crossed	same	different	300	right	lower	right	upper	1	879	ses-1	250
sub-13	1	254	crossed	different	same	300	right	lower	left	lower	1	736	ses-1	251
sub-13	1	255	crossed	same	same	100	left	lower	left	lower	1	1255	ses-1	252
sub-13	1	256	crossed	same	different	50	left	upper	left	lower	1	405	ses-1	253
sub-13	1	257	crossed	different	different	50	right	upper	left	lower	1	1566	ses-1	254
sub-13	1	258	crossed	same	different	50	left	lower	left	upper	1	550	ses-1	255
sub-13	1	259	crossed	different	same	100	right	lower	left	lower	1	1765	ses-1	256
sub-13	1	260	crossed	different	different	800	right	lower	left	upper	1	940	ses-1	257
sub-13	1	261	crossed	different	same	50	left	lower	right	lower	1	1308	ses-1	258
sub-13	1	262	crossed	same	same	300	left	lower	left	lower	1	710	ses-1	259
sub-13	1	263	crossed	different	same	300	left	lower	right	lower	1	863	ses-1	260
sub-13	1	264	crossed	different	same	50	left	lower	right	lower	1	1021	ses-1	261
sub-13	1	265	crossed	different	same	300	right	lower	left	lower	1	457	ses-1	262
sub-13	1	266	crossed	different	different	100	right	lower	left	upper	1	1443	ses-1	263
sub-13	1	267	crossed	same	different	50	right	lower	right	upper	1	934	ses-1	264
sub-13	1	268	crossed	same	same	300	right	lower	right	lower	1	1021	ses-1	265
sub-13	1	269	crossed	different	same	100	left	lower	right	lower	1	942	ses-1	266
sub-13	1	270	crossed	same	same	50	right	lower	right	lower	1	1037	ses-1	267
sub-13	1	271	crossed	same	same	300	right	lower	right	lower	1	419	ses-1	268
sub-13	1	272	crossed	same	same	50	right	lower	right	lower	1	396	ses-1	269
sub-13	1	273	crossed	different	different	100	left	upper	right	lower	1	1421	ses-1	270
sub-13	1	274	crossed	different	same	800	right	lower	left	lower	1	781	ses-1	271
sub-13	1	275	crossed	same	same	300	left	lower	left	lower	1	1047	ses-1	272
sub-13	1	276	crossed	different	different	100	right	lower	left	upper	1	1294	ses-1	273
sub-13	1	277	crossed	different	different	800	left	lower	right	upper	1	769	ses-1	274
sub-13	1	278	crossed	same	same	300	right	lower	right	lower	1	1580	ses-1	275
sub-13	1	279	crossed	same	different	300	left	upper	left	lower	1	631	ses-1	276
sub-13	1	280	crossed	same	same	300	left	lower	left	lower	1	422	ses-1	277
sub-13	1	281	crossed	same	different	300	left	upper	left	lower	1	498	ses-1	278
sub-13	1	282	crossed	same	same	800	left	lower	left	lower	1	718	ses-1	279
sub-13	1	283	crossed	same	different	100	left	upper	left	lower	1	443	ses-1	280
sub-13	1	284	crossed	same	same	50	left	lower	left	lower	1	545	ses-1	281
sub-13	1	285	crossed	same	same	100	left	lower	left	lower	1	442	ses-1	282
sub-13	1	286	crossed	same	different	50	left	lower	left	upper	1	728	ses-1	283
sub-13	1	287	crossed	different	different	50	right	lower	left	upper	1	1231	ses-1	284
sub-13	1	288	crossed	same	different	50	left	upper	left	lower	1	519	ses-1	285
sub-13	1	289	crossed	different	different	50	right	lower	left	upper	0	1077	ses-1	286
sub-13	1	291	crossed	different	same	50	left	lower	right	lower	1	1297	ses-1	287
sub-13	1	292	crossed	same	same	100	right	lower	right	lower	1	1016	ses-1	288
sub-13	1	294	crossed	different	different	100	right	upper	left	lower	1	1315	ses-1	289
sub-13	1	295	crossed	different	different	300	right	lower	left	upper	1	751	ses-1	290
sub-13	1	297	crossed	same	same	100	right	lower	right	lower	1	954	ses-1	291
sub-13	1	298	crossed	different	different	800	left	lower	right	upper	1	1518	ses-1	292
sub-13	1	299	crossed	same	same	50	right	lower	right	lower	1	1583	ses-1	293
sub-13	1	310	crossed	same	different	800	left	upper	left	lower	1	844	ses-1	294
sub-13	1	311	crossed	different	different	300	right	lower	left	upper	1	1295	ses-1	295
sub-13	1	312	crossed	different	different	50	right	lower	left	upper	0	978	ses-1	296
sub-13	1	313	crossed	same	same	100	right	lower	right	lower	1	879	ses-1	297
sub-13	1	314	crossed	same	different	800	left	lower	left	upper	1	893	ses-1	298
sub-13	1	315	crossed	different	different	100	right	lower	left	upper	0	1236	ses-1	299
sub-13	1	316	crossed	same	different	50	left	lower	left	upper	1	570	ses-1	300
sub-13	1	317	crossed	same	same	100	left	lower	left	lower	1	415	ses-1	301
sub-13	1	318	crossed	different	same	800	left	lower	right	lower	1	1482	ses-1	302
sub-13	1	319	crossed	different	different	100	left	upper	right	lower	0	1410	ses-1	303
sub-13	1	320	crossed	different	same	300	right	lower	left	lower	0	726	ses-1	304
sub-13	1	321	crossed	same	different	300	left	lower	left	upper	1	409	ses-1	305
sub-13	1	322	crossed	different	same	100	left	lower	right	lower	1	968	ses-1	306
sub-13	1	323	crossed	same	same	800	left	lower	left	lower	1	484	ses-1	307
sub-13	1	324	crossed	different	same	100	left	lower	right	lower	0	1190	ses-1	308
sub-13	1	325	crossed	same	same	300	right	lower	right	lower	1	612	ses-1	309
sub-13	1	326	crossed	same	same	800	left	lower	left	lower	1	546	ses-1	310
sub-13	1	327	crossed	same	different	50	right	upper	right	lower	1	560	ses-1	311
sub-13	1	328	crossed	different	different	50	left	upper	right	lower	0	943	ses-1	312
sub-13	1	329	crossed	same	different	100	right	lower	right	upper	1	721	ses-1	313
sub-13	1	330	crossed	same	different	800	left	lower	left	upper	1	563	ses-1	314
sub-13	1	331	crossed	same	different	50	right	upper	right	lower	1	528	ses-1	315
sub-13	1	332	crossed	different	same	100	left	lower	right	lower	0	804	ses-1	316
sub-13	1	333	crossed	different	same	300	left	lower	right	lower	0	982	ses-1	317
sub-13	1	334	crossed	same	same	300	left	lower	left	lower	1	455	ses-1	318
sub-13	1	335	crossed	same	different	300	right	upper	right	lower	1	608	ses-1	319
sub-13	1	336	crossed	different	different	300	right	lower	left	upper	1	1090	ses-1	320
sub-13	1	337	crossed	different	same	800	right	lower	left	lower	1	730	ses-1	321
sub-13	1	338	crossed	different	different	300	right	lower	left	upper	1	574	ses-1	322
sub-13	1	339	crossed	different	different	50	right	upper	left	lower	1	813	ses-1	323
sub-13	1	340	crossed	same	different	50	right	upper	right	lower	0	725	ses-1	324
sub-13	1	341	crossed	different	same	100	right	lower	left	lower	1	983	ses-1	325
sub-13	1	342	crossed	different	same	50	right	lower	left	lower	1	1313	ses-1	326
sub-13	1	343	crossed	same	same	800	left	lower	left	lower	1	762	ses-1	327
sub-13	1	344	crossed	same	different	300	left	upper	left	lower	1	689	ses-1	328
sub-13	1	345	crossed	same	same	50	right	lower	right	lower	1	1222	ses-1	329
sub-13	1	346	crossed	different	same	50	right	lower	left	lower	0	1013	ses-1	330
sub-13	1	347	crossed	different	different	100	right	upper	left	lower	1	719	ses-1	331
sub-13	1	348	crossed	same	different	800	left	upper	left	lower	1	810	ses-1	332
sub-13	1	349	crossed	same	different	800	right	upper	right	lower	1	1037	ses-1	333
sub-13	1	350	crossed	same	same	100	left	lower	left	lower	1	496	ses-1	334
sub-13	1	351	crossed	same	same	800	right	lower	right	lower	1	1036	ses-1	335
sub-13	1	352	crossed	different	different	50	right	lower	left	upper	1	1332	ses-1	336
sub-13	1	353	crossed	different	same	100	left	lower	right	lower	0	1631	ses-1	337
sub-13	1	354	crossed	same	different	800	right	upper	right	lower	1	954	ses-1	338
sub-13	1	355	crossed	different	different	100	left	lower	right	upper	1	728	ses-1	339
sub-13	1	356	crossed	same	different	300	left	lower	left	upper	0	1234	ses-1	340
sub-13	1	357	crossed	different	different	300	left	lower	right	upper	1	740	ses-1	341
sub-13	1	358	crossed	different	different	800	left	lower	right	upper	1	478	ses-1	342
sub-13	1	359	crossed	same	same	800	left	lower	left	lower	1	541	ses-1	343
sub-13	1	360	crossed	same	different	300	left	upper	left	lower	1	1105	ses-1	344
sub-13	1	361	crossed	same	different	50	right	upper	right	lower	1	1046	ses-1	345
sub-13	1	362	crossed	different	same	300	right	lower	left	lower	1	954	ses-1	346
sub-13	1	363	crossed	same	different	800	left	lower	left	upper	1	820	ses-1	347
sub-13	1	364	crossed	different	same	300	left	lower	right	lower	0	1383	ses-1	348
sub-13	1	365	crossed	different	same	50	left	lower	right	lower	1	1351	ses-1	349
sub-13	1	366	crossed	different	different	50	left	lower	right	upper	1	972	ses-1	350
sub-13	1	367	crossed	different	different	300	right	upper	left	lower	1	562	ses-1	351
sub-13	1	368	crossed	different	same	100	left	lower	right	lower	0	1078	ses-1	352
sub-13	1	369	crossed	same	same	300	right	lower	right	lower	1	1157	ses-1	353
sub-13	1	370	crossed	different	same	800	left	lower	right	lower	1	1176	ses-1	354
sub-13	1	371	crossed	same	same	50	right	lower	right	lower	1	770	ses-1	355
sub-13	1	372	crossed	different	same	300	left	lower	right	lower	0	1381	ses-1	356
sub-13	1	373	crossed	different	same	800	right	lower	left	lower	1	780	ses-1	357
sub-13	1	374	crossed	same	same	50	left	lower	left	lower	1	724	ses-1	358
sub-13	1	375	crossed	different	same	800	left	lower	right	lower	0	732	ses-1	359
sub-13	1	376	crossed	same	different	800	right	lower	right	upper	1	772	ses-1	360
sub-13	1	377	crossed	different	different	800	right	lower	left	upper	1	794	ses-1	361
sub-13	1	378	crossed	different	different	300	left	upper	right	lower	1	1420	ses-1	362
sub-13	1	379	crossed	different	different	300	left	upper	right	lower	1	875	ses-1	363
sub-13	1	380	crossed	same	different	100	left	lower	left	upper	0	888	ses-1	364
sub-13	1	381	crossed	different	different	100	right	upper	left	lower	1	2126	ses-1	365
sub-13	1	382	crossed	same	different	100	left	upper	left	lower	1	1385	ses-1	366
sub-13	1	383	crossed	same	different	50	left	lower	left	upper	1	428	ses-1	367
sub-13	1	384	crossed	different	different	50	right	lower	left	upper	0	1318	ses-1	368
sub-13	1	385	crossed	different	same	50	right	lower	left	lower	1	1388	ses-1	369
sub-13	1	386	crossed	different	same	800	right	lower	left	lower	0	1983	ses-1	370
sub-13	1	387	crossed	same	different	300	right	lower	right	upper	1	1212	ses-1	371
sub-13	1	388	crossed	different	different	100	left	lower	right	upper	1	607	ses-1	372
sub-13	1	389	crossed	different	different	50	left	lower	right	upper	1	591	ses-1	373
sub-13	1	390	crossed	different	different	50	left	lower	right	upper	1	424	ses-1	374
sub-13	1	391	crossed	different	same	50	right	lower	left	lower	1	365	ses-1	375
sub-13	1	392	crossed	different	same	100	left	lower	right	lower	1	459	ses-1	376
sub-13	1	393	crossed	same	same	300	left	lower	left	lower	1	633	ses-1	377
sub-13	1	394	crossed	same	different	100	right	upper	right	lower	0	1291	ses-1	378
sub-13	1	395	crossed	different	same	50	right	lower	left	lower	1	1276	ses-1	379
sub-13	1	396	crossed	different	same	800	left	lower	right	lower	1	1576	ses-1	380
sub-13	1	397	crossed	same	same	800	left	lower	left	lower	1	628	ses-1	381
sub-13	1	398	crossed	different	different	300	left	lower	right	upper	1	1410	ses-1	382
sub-13	1	399	crossed	different	different	300	right	upper	left	lower	1	578	ses-1	383
sub-13	1	400	crossed	same	same	50	right	lower	right	lower	1	816	ses-1	384
sub-13	2	1	crossed	different	same	300	right	lower	left	lower	0	564	ses-1	385
sub-13	2	2	crossed	different	different	50	right	upper	left	lower	1	1012	ses-1	386
sub-13	2	3	crossed	same	same	800	left	lower	left	lower	1	663	ses-1	387
sub-13	2	4	crossed	different	same	50	left	lower	right	lower	1	1219	ses-1	388
sub-13	2	5	crossed	same	different	800	right	upper	right	lower	1	709	ses-1	389
sub-13	2	6	crossed	different	same	800	left	lower	right	lower	1	597	ses-1	390
sub-13	2	7	crossed	different	same	800	right	lower	left	lower	1	932	ses-1	391
sub-13	2	8	crossed	different	same	100	right	lower	left	lower	0	1074	ses-1	392
sub-13	2	9	crossed	same	different	300	left	lower	left	upper	1	1052	ses-1	393
sub-13	2	10	crossed	same	same	300	left	lower	left	lower	1	422	ses-1	394
sub-13	2	11	crossed	same	same	300	right	lower	right	lower	1	738	ses-1	395
sub-13	2	12	crossed	same	different	800	right	upper	right	lower	1	473	ses-1	396
sub-13	2	13	crossed	same	different	300	left	lower	left	upper	1	512	ses-1	397
sub-13	2	14	crossed	same	different	800	right	upper	right	lower	1	1332	ses-1	398
sub-13	2	15	crossed	same	different	800	left	upper	left	lower	1	605	ses-1	399
sub-13	2	16	crossed	same	different	100	right	upper	right	lower	1	468	ses-1	400
sub-13	2	17	crossed	different	same	300	left	lower	right	lower	1	782	ses-1	401
sub-13	2	18	crossed	same	different	300	right	lower	right	upper	1	505	ses-1	402
sub-13	2	19	crossed	same	same	300	right	lower	right	lower	1	406	ses-1	403
sub-13	2	20	crossed	same	same	50	left	lower	left	lower	1	688	ses-1	404
sub-13	2	21	crossed	different	same	50	left	lower	right	lower	1	1308	ses-1	405
sub-13	2	22	crossed	same	different	300	right	upper	right	lower	1	816	ses-1	406
sub-13	2	23	crossed	same	same	100	left	lower	left	lower	1	702	ses-1	407
sub-13	2	24	crossed	same	different	100	right	upper	right	lower	1	763	ses-1	408
sub-13	2	25	crossed	different	same	50	left	lower	right	lower	0	1205	ses-1	409
sub-13	2	26	crossed	different	same	50	left	lower	right	lower	0	1367	ses-1	410
sub-13	2	27	crossed	different	same	100	left	lower	right	lower	1	1192	ses-1	411
sub-13	2	28	crossed	different	same	300	left	lower	right	lower	1	903	ses-1	412
sub-13	2	29	crossed	different	same	50	right	lower	left	lower	1	868	ses-1	413
sub-13	2	30	crossed	different	different	50	right	lower	left	upper	1	1188	ses-1	414
sub-13	2	31	crossed	different	same	50	right	lower	left	lower	1	880	ses-1	415
sub-13	2	32	crossed	different	same	800	right	lower	left	lower	1	1355	ses-1	416
sub-13	2	33	crossed	different	different	100	left	upper	right	lower	0	1079	ses-1	417
sub-13	2	34	crossed	same	different	300	left	lower	left	upper	1	720	ses-1	418
sub-13	2	35	crossed	different	different	50	left	upper	right	lower	1	1100	ses-1	419
sub-13	2	36	crossed	same	same	50	left	lower	left	lower	0	649	ses-1	420
sub-13	2	37	crossed	different	different	800	right	upper	left	lower	1	817	ses-1	421
sub-13	2	38	crossed	different	same	800	right	lower	left	lower	0	870	ses-1	422
sub-13	2	39	crossed	same	different	300	right	upper	right	lower	1	1633	ses-1	423
sub-13	2	40	crossed	same	same	800	left	lower	left	lower	1	572	ses-1	424
sub-13	2	41	crossed	same	same	100	left	lower	left	lower	1	531	ses-1	425
sub-13	2	42	crossed	different	same	100	left	lower	right	lower	1	1109	ses-1	426
sub-13	2	44	crossed	different	different	800	left	lower	right	upper	1	854	ses-1	427
sub-13	2	45	crossed	different	same	800	left	lower	right	lower	1	456	ses-1	428
sub-13	2	46	crossed	same	same	100	right	lower	right	lower	0	1073	ses-1	429
sub-13	2	47	crossed	same	same	800	right	lower	right	lower	1	1064	ses-1	430
sub-13	2	48	crossed	same	different	50	left	lower	left	upper	1	1000	ses-1	431
sub-13	2	49	crossed	different	different	50	left	lower	right	upper	1	1293	ses-1	432
sub-13	2	50	crossed	same	same	300	left	lower	left	lower	1	434	ses-1	433
sub-13	2	51	crossed	different	different	50	right	upper	left	lower	1	775	ses-1	434
sub-13	2	52	crossed	different	different	300	left	lower	right	upper	1	450	ses-1	435
sub-13	2	53	crossed	same	different	50	right	upper	right	lower	1	542	ses-1	436
sub-13	2	54	crossed	same	different	50	right	lower	right	upper	0	428	ses-1	437
sub-13	2	55	crossed	same	different	800	left	upper	left	lower	1	613	ses-1	438
sub-13	2	56	crossed	same	different	100	left	lower	left	upper	1	427	ses-1	439
sub-13	2	57	crossed	same	different	300	right	upper	right	lower	1	595	ses-1	440
sub-13	2	58	crossed	same	different	50	right	lower	right	upper	1	381	ses-1	441
sub-13	2	59	crossed	different	different	300	left	lower	right	upper	0	645	ses-1	442
sub-13	2	60	crossed	same	same	100	right	lower	right	lower	1	434	ses-1	443
sub-13	2	61	crossed	same	different	50	left	lower	left	upper	1	524	ses-1	444
sub-13	2	62	crossed	different	same	800	right	lower	left	lower	1	644	ses-1	445
sub-13	2	63	crossed	different	different	100	right	lower	left	upper	1	728	ses-1	446
sub-13	2	64	crossed	different	same	50	left	lower	right	lower	0	1387	ses-1	447
sub-13	2	65	crossed	same	same	50	right	lower	right	lower	1	576	ses-1	448
sub-13	2	66	crossed	same	different	800	left	upper	left	lower	1	1222	ses-1	449
sub-13	2	67	crossed	same	different	100	right	lower	right	upper	1	580	ses-1	450
sub-13	2	68	crossed	same	same	50	left	lower	left	lower	1	538	ses-1	451
sub-13	2	69	crossed	same	different	800	left	lower	left	upper	1	494	ses-1	452
sub-13	2	70	crossed	different	different	800	left	lower	right	upper	1	1203	ses-1	453
sub-13	2	71	crossed	different	same	300	right	lower	left	lower	1	923	ses-1	454
sub-13	2	72	crossed	different	different	800	left	upper	right	lower	1	727	ses-1	455
sub-13	2	73	crossed	same	same	300	right	lower	right	lower	1	1700	ses-1	456
sub-13	2	74	crossed	same	different	300	right	lower	right	upper	1	478	ses-1	457
sub-13	2	75	crossed	different	same	50	left	lower	right	lower	1	947	ses-1	458
sub-13	2	76	crossed	different	different	300	right	upper	left	lower	1	557	ses-1	459
sub-13	2	77	crossed	same	different	100	right	lower	right	upper	1	778	ses-1	460
sub-13	2	79	crossed	different	same	50	right	lower	left	lower	0	828	ses-1	461
sub-13	2	80	crossed	same	different	300	left	lower	left	upper	1	1252	ses-1	462
sub-13	2	81	crossed	different	different	300	right	lower	left	upper	1	546	ses-1	463
sub-13	2	82	crossed	different	different	800	right	lower	left	upper	1	446	ses-1	464
sub-13	2	83	crossed	same	same	100	right	lower	right	lower	1	730	ses-1	465
sub-13	2	84	crossed	same	same	50	left	lower	left	lower	1	675	ses-1	466
sub-13	2	85	crossed	same	same	800	right	lower	right	lower	1	616	ses-1	467
sub-13	2	86	crossed	same	different	300	left	upper	left	lower	1	649	ses-1	468
sub-13	2	87	crossed	same	same	50	right	lower	right	lower	1	431	ses-1	469
sub-13	2	88	crossed	different	same	300	right	lower	left	lower	1	959	ses-1	470
sub-13	2	89	crossed	different	same	100	left	lower	right	lower	1	1497	ses-1	471
sub-13	2	90	crossed	different	same	800	left	lower	right	lower	1	625	ses-1	472
sub-13	2	91	crossed	different	same	300	right	lower	left	lower	1	731	ses-1	473
sub-13	2	92	crossed	different	different	300	right	lower	left	upper	1	556	ses-1	474
sub-13	2	93	crossed	different	same	50	right	lower	left	lower	1	1239	ses-1	475
sub-13	2	94	crossed	different	different	300	right	upper	left	lower	1	1093	ses-1	476
sub-13	2	95	crossed	same	same	100	right	lower	right	lower	1	797	ses-1	477
sub-13	2	96	crossed	different	different	300	right	lower	left	upper	1	693	ses-1	478
sub-13	2	97	crossed	different	different	50	right	lower	left	upper	0	1174	ses-1	479
sub-13	2	98	crossed	same	different	50	right	upper	right	lower	1	529	ses-1	480
sub-13	2	99	crossed	same	same	100	left	lower	left	lower	1	624	ses-1	481
sub-13	2	100	crossed	same	same	100	left	lower	left	lower	1	393	ses-1	482
sub-13	2	101	crossed	different	different	300	left	lower	right	upper	1	981	ses-1	483
sub-13	2	102	crossed	different	different	800	left	lower	right	upper	1	360	ses-1	484
sub-13	2	103	crossed	different	same	50	left	lower	right	lower	0	942	ses-1	485
sub-13	2	104	crossed	same	same	100	right	lower	right	lower	1	538	ses-1	486
sub-13	2	105	crossed	same	different	100	left	lower	left	upper	1	489	ses-1	487
sub-13	2	106	crossed	same	different	300	right	lower	right	upper	1	558	ses-1	488
sub-13	2	107	crossed	same	same	300	right	lower	right	lower	1	341	ses-1	489
sub-13	2	108	crossed	same	different	800	right	lower	right	upper	1	471	ses-1	490
sub-13	2	109	crossed	different	same	100	right	lower	left	lower	1	936	ses-1	491
sub-13	2	110	crossed	same	different	800	right	upper	right	lower	1	920	ses-1	492
sub-13	2	111	crossed	same	same	100	right	lower	right	lower	1	397	ses-1	493
sub-13	2	112	crossed	different	different	50	left	upper	right	lower	1	989	ses-1	494
sub-13	2	113	crossed	different	same	100	left	lower	right	lower	0	1036	ses-1	495
sub-13	2	114	crossed	different	same	800	right	lower	left	lower	1	586	ses-1	496
sub-13	2	115	crossed	same	different	50	right	upper	right	lower	1	793	ses-1	497
sub-13	2	116	crossed	different	same	300	left	lower	right	lower	1	596	ses-1	498
sub-13	2	117	crossed	different	same	50	right	lower	left	lower	1	1139	ses-1	499
sub-13	2	118	crossed	same	same	50	right	lower	right	lower	1	758	ses-1	500
sub-13	2	119	crossed	same	same	100	right	lower	right	lower	1	392	ses-1	501
sub-13	2	120	crossed	same	same	300	right	lower	right	lower	1	470	ses-1	502
sub-13	2	121	crossed	different	different	800	left	upper	right	lower	1	1047	ses-1	503
sub-13	2	122	crossed	same	different	100	right	lower	right	upper	0	467	ses-1	504
sub-13	2	123	crossed	same	same	300	left	lower	left	lower	1	597	ses-1	505
sub-13	2	124	crossed	different	different	800	right	upper	left	lower	0	1827	ses-1	506
sub-13	2	125	crossed	same	same	50	left	lower	left	lower	1	750	ses-1	507
sub-13	2	126	crossed	same	different	100	left	lower	left	upper	1	396	ses-1	508
sub-13	2	127	crossed	same	same	50	right	lower	right	lower	1	624	ses-1	509
sub-13	2	128	crossed	same	same	50	right	lower	right	lower	1	320	ses-1	510
sub-13	2	129	crossed	same	different	300	right	lower	right	upper	1	732	ses-1	511
sub-13	2	130	crossed	same	same	300	left	lower	left	lower	1	737	ses-1	512
sub-13	2	131	crossed	different	different	50	right	lower	left	upper	0	747	ses-1	513
sub-13	2	132	crossed	different	same	300	left	lower	right	lower	1	1267	ses-1	514
sub-13	2	133	crossed	different	same	800	right	lower	left	lower	1	584	ses-1	515
sub-13	2	134	crossed	same	different	300	left	upper	left	lower	1	1233	ses-1	516
sub-13	2	135	crossed	different	same	800	right	lower	left	lower	1	721	ses-1	517
sub-13	2	136	crossed	different	same	100	right	lower	left	lower	1	908	ses-1	518
sub-13	2	137	crossed	different	different	100	right	lower	left	upper	1	463	ses-1	519
sub-13	2	138	crossed	different	different	300	right	upper	left	lower	0	710	ses-1	520
sub-13	2	139	crossed	different	same	300	left	lower	right	lower	1	839	ses-1	521
sub-13	2	140	crossed	same	same	800	left	lower	left	lower	1	796	ses-1	522
sub-13	2	141	crossed	same	same	800	right	lower	right	lower	0	851	ses-1	523
sub-13	2	142	crossed	different	different	300	left	upper	right	lower	1	838	ses-1	524
sub-13	2	143	crossed	different	same	50	right	lower	left	lower	1	1115	ses-1	525
sub-13	2	144	crossed	different	different	300	right	upper	left	lower	1	660	ses-1	526
sub-13	2	145	crossed	different	different	50	left	upper	right	lower	0	1681	ses-1	527
sub-13	2	146	crossed	same	different	50	left	upper	left	lower	1	726	ses-1	528
sub-13	2	147	crossed	same	different	800	left	lower	left	upper	1	681	ses-1	529
sub-13	2	148	crossed	same	different	100	right	lower	right	upper	1	917	ses-1	530
sub-13	2	149	crossed	different	different	300	left	lower	right	upper	1	833	ses-1	531
sub-13	2	150	crossed	different	same	800	right	lower	left	lower	1	533	ses-1	532
sub-13	2	151	crossed	different	same	300	left	lower	right	lower	1	877	ses-1	533
sub-13	2	152	crossed	different	different	300	left	lower	right	upper	1	525	ses-1	534
sub-13	2	153	crossed	same	different	300	left	upper	left	lower	1	788	ses-1	535
sub-13	2	154	crossed	same	same	50	left	lower	left	lower	1	730	ses-1	536
sub-13	2	155	crossed	different	different	800	left	lower	right	upper	1	830	ses-1	537
sub-13	2	156	crossed	same	different	800	left	upper	left	lower	1	522	ses-1	538
sub-13	2	157	crossed	same	same	100	left	lower	left	lower	1	433	ses-1	539
sub-13	2	158	crossed	different	same	50	right	lower	left	lower	1	1052	ses-1	540
sub-13	2	159	crossed	different	same	100	left	lower	right	lower	1	509	ses-1	541
sub-13	2	160	crossed	same	different	50	right	lower	right	upper	1	782	ses-1	542
sub-13	2	161	crossed	different	same	100	right	lower	left	lower	1	987	ses-1	543
sub-13	2	162	crossed	different	same	50	left	lower	right	lower	1	1097	ses-1	544
sub-13	2	163	crossed	different	same	800	right	lower	left	lower	1	485	ses-1	545
sub-13	2	164	crossed	different	different	100	left	lower	right	upper	1	402	ses-1	546
sub-13	2	165	crossed	same	different	300	left	upper	left	lower	1	452	ses-1	547
sub-13	2	166	crossed	same	same	300	right	lower	right	lower	1	541	ses-1	548
sub-13	2	167	crossed	same	same	300	left	lower	left	lower	1	550	ses-1	549
sub-13	2	168	crossed	different	same	800	right	lower	left	lower	1	554	ses-1	550
sub-13	2	169	crossed	different	same	50	left	lower	right	lower	1	1125	ses-1	551
sub-13	2	170	crossed	different	same	300	left	lower	right	lower	0	307	ses-1	552
sub-13	2	171	crossed	different	different	800	left	lower	right	upper	1	486	ses-1	553
sub-13	2	172	crossed	same	same	100	right	lower	right	lower	1	453	ses-1	554
sub-13	2	173	crossed	different	different	50	right	upper	left	lower	1	476	ses-1	555
sub-13	2	174	crossed	same	same	800	right	lower	right	lower	0	819	ses-1	556
sub-13	2	175	crossed	different	different	300	left	upper	right	lower	0	851	ses-1	557
sub-13	2	176	crossed	different	different	800	right	upper	left	lower	1	806	ses-1	558
sub-13	2	177	crossed	different	same	100	left	lower	right	lower	0	590	ses-1	559
sub-13	2	178	crossed	same	different	800	right	lower	right	upper	0	388	ses-1	560
sub-13	2	179	crossed	same	same	800	right	lower	right	lower	0	1281	ses-1	561
sub-13	2	180	crossed	different	same	50	left	lower	right	lower	0	892	ses-1	562
sub-13	2	181	crossed	different	different	300	left	upper	right	lower	1	849	ses-1	563
sub-13	2	182	crossed	same	same	50	left	lower	left	lower	0	966	ses-1	564
sub-13	2	183	crossed	different	same	100	right	lower	left	lower	1	896	ses-1	565
sub-13	2	184	crossed	different	same	100	right	lower	left	lower	1	531	ses-1	566
sub-13	2	185	crossed	different	same	300	right	lower	left	lower	1	1260	ses-1	567
sub-13	2	186	crossed	same	different	300	right	lower	right	upper	1	536	ses-1	568
sub-13	2	187	crossed	different	different	100	right	upper	left	lower	1	587	ses-1	569
sub-13	2	188	crossed	different	different	800	left	upper	right	lower	1	665	ses-1	570
sub-13	2	189	crossed	same	different	50	right	lower	right	upper	1	504	ses-1	571
sub-13	2	190	crossed	same	same	50	left	lower	left	lower	1	775	ses-1	572
sub-13	2	191	crossed	different	different	800	right	upper	left	lower	1	670	ses-1	573
sub-13	2	192	crossed	different	same	300	left	lower	right	lower	1	1041	ses-1	574
sub-13	2	194	crossed	same	same	800	right	lower	right	lower	0	1006	ses-1	575
sub-13	2	196	crossed	same	same	300	left	lower	left	lower	1	816	ses-1	576
sub-13	2	197	crossed	different	same	100	right	lower	left	lower	1	644	ses-1	577
sub-13	2	198	crossed	different	different	100	right	lower	left	upper	0	620	ses-1	578
sub-13	2	199	crossed	same	same	50	right	lower	right	lower	1	710	ses-1	579
sub-13	2	200	crossed	same	same	800	left	lower	left	lower	1	1200	ses-1	580
sub-13	2	201	crossed	same	same	300	right	lower	right	lower	1	546	ses-1	581
sub-13	2	202	crossed	same	same	800	left	lower	left	lower	1	754	ses-1	582
sub-13	2	203	crossed	same	same	300	right	lower	right	lower	1	896	ses-1	583
sub-13	2	204	crossed	same	different	800	right	lower	right	upper	1	724	ses-1	584
sub-13	2	205	crossed	same	same	800	right	lower	right	lower	1	434	ses-1	585
sub-13	2	206	crossed	same	same	100	left	lower	left	lower	1	502	ses-1	586
sub-13	2	207	crossed	different	different	100	left	lower	right	upper	1	1109	ses-1	587
sub-13	2	208	crossed	same	same	100	left	lower	left	lower	1	617	ses-1	588
sub-13	2	209	crossed	different	same	100	left	lower	right	lower	1	579	ses-1	589
sub-13	2	210	crossed	different	same	800	left	lower	right	lower	1	379	ses-1	590
sub-13	2	211	crossed	same	different	50	left	upper	left	lower	1	512	ses-1	591
sub-13	2	212	crossed	same	different	100	left	upper	left	lower	1	403	ses-1	592
sub-13	2	213	crossed	different	different	50	left	lower	right	upper	1	630	ses-1	593
sub-13	2	214	crossed	different	same	100	right	lower	left	lower	0	563	ses-1	594
sub-13	2	215	crossed	different	different	100	right	upper	left	lower	1	471	ses-1	595
sub-13	2	216	crossed	different	different	50	left	lower	right	upper	1	443	ses-1	596
sub-13	2	217	crossed	different	different	100	right	lower	left	upper	0	1226	ses-1	597
sub-13	2	218	crossed	same	same	800	right	lower	right	lower	1	566	ses-1	598
sub-13	2	219	crossed	different	different	300	right	upper	left	lower	1	714	ses-1	599
sub-13	2	220	crossed	same	same	50	right	lower	right	lower	1	678	ses-1	600
sub-13	2	221	crossed	different	different	100	right	upper	left	lower	1	822	ses-1	601
sub-13	2	222	crossed	different	same	800	left	lower	right	lower	1	598	ses-1	602
sub-13	2	223	crossed	same	different	800	left	lower	left	upper	0	694	ses-1	603
sub-13	2	224	crossed	different	different	100	right	lower	left	upper	1	1236	ses-1	604
sub-13	2	225	crossed	same	same	800	left	lower	left	lower	1	758	ses-1	605
sub-13	2	226	crossed	same	same	300	right	lower	right	lower	0	808	ses-1	606
sub-13	2	227	crossed	different	different	100	right	upper	left	lower	1	727	ses-1	607
sub-13	2	228	crossed	same	different	300	right	upper	right	lower	1	556	ses-1	608
sub-13	2	229	crossed	different	different	50	left	lower	right	upper	1	759	ses-1	609
sub-13	2	230	crossed	same	different	50	left	lower	left	upper	1	705	ses-1	610
sub-13	2	231	crossed	same	different	300	right	upper	right	lower	0	669	ses-1	611
sub-13	2	232	crossed	different	different	50	right	lower	left	upper	1	1088	ses-1	612
sub-13	2	233	crossed	same	different	50	left	upper	left	lower	1	635	ses-1	613
sub-13	2	234	crossed	different	same	800	left	lower	right	lower	1	1138	ses-1	614
sub-13	2	235	crossed	same	different	300	left	lower	left	upper	1	597	ses-1	615
sub-13	2	236	crossed	different	different	800	right	upper	left	lower	1	492	ses-1	616
sub-13	2	237	crossed	different	same	50	right	lower	left	lower	0	795	ses-1	617
sub-13	2	238	crossed	different	different	800	left	upper	right	lower	1	670	ses-1	618
sub-13	2	239	crossed	same	different	100	right	lower	right	upper	1	556	ses-1	619
sub-13	2	240	crossed	same	same	50	right	lower	right	lower	1	553	ses-1	620
sub-13	2	241	crossed	different	different	100	left	lower	right	upper	1	651	ses-1	621
sub-13	2	242	crossed	different	same	100	left	lower	right	lower	0	487	ses-1	622
sub-13	2	243	crossed	same	different	50	right	lower	right	upper	0	566	ses-1	623
sub-13	2	244	crossed	same	same	800	right	lower	right	lower	1	847	ses-1	624
sub-13	2	245	crossed	same	same	800	left	lower	left	lower	1	559	ses-1	625
sub-13	2	246	crossed	different	different	300	right	lower	left	upper	1	701	ses-1	626
sub-13	2	247	crossed	different	same	300	left	lower	right	lower	0	774	ses-1	627
sub-13	2	248	crossed	same	different	300	right	upper	right	lower	0	543	ses-1	628
sub-13	2	249	crossed	same	different	100	left	lower	left	upper	1	441	ses-1	629
sub-13	2	250	crossed	same	same	800	right	lower	right	lower	1	582	ses-1	630
sub-13	2	251	crossed	different	different	50	left	upper	right	lower	0	830	ses-1	631
sub-13	2	252	crossed	different	different	800	right	lower	left	upper	1	418	ses-1	632
sub-13	2	253	crossed	different	different	50	left	lower	right	upper	1	867	ses-1	633
sub-13	2	254	crossed	different	same	300	right	lower	left	lower	1	702	ses-1	634
sub-13	2	255	crossed	different	different	50	right	upper	left	lower	0	935	ses-1	635
sub-13	2	256	crossed	same	different	800	right	lower	right	upper	1	696	ses-1	636
sub-13	2	257	crossed	different	different	800	right	lower	left	upper	1	588	ses-1	637
sub-13	2	258	crossed	same	same	100	left	lower	left	lower	1	587	ses-1	638
sub-13	2	259	crossed	same	different	800	right	upper	right	lower	1	1151	ses-1	639
sub-13	2	260	crossed	same	same	300	left	lower	left	lower	1	494	ses-1	640
sub-13	2	261	crossed	same	same	800	left	lower	left	lower	1	363	ses-1	641
sub-13	2	262	crossed	different	same	800	left	lower	right	lower	1	1172	ses-1	642
sub-13	2	263	crossed	same	different	100	left	upper	left	lower	1	638	ses-1	643
sub-13	2	264	crossed	same	same	50	right	lower	right	lower	1	698	ses-1	644
sub-13	2	265	crossed	different	same	300	right	lower	left	lower	1	602	ses-1	645
sub-13	2	266	crossed	same	different	50	left	upper	left	lower	1	485	ses-1	646
sub-13	2	267	crossed	same	different	800	left	lower	left	upper	1	695	ses-1	647
sub-13	2	268	crossed	same	same	300	left	lower	left	lower	1	1265	ses-1	648
sub-13	2	269	crossed	different	different	800	right	upper	left	lower	1	709	ses-1	649
sub-13	2	270	crossed	same	same	800	left	lower	left	lower	1	505	ses-1	650
sub-13	2	271	crossed	different	different	300	left	lower	right	upper	1	514	ses-1	651
sub-13	2	272	crossed	same	different	100	left	upper	left	lower	1	609	ses-1	652
sub-13	2	273	crossed	same	same	50	right	lower	right	lower	1	743	ses-1	653
sub-13	2	274	crossed	same	different	300	left	lower	left	upper	1	467	ses-1	654
sub-13	2	275	crossed	different	different	50	right	upper	left	lower	1	741	ses-1	655
sub-13	2	276	crossed	different	different	800	left	lower	right	upper	1	731	ses-1	656
sub-13	2	277	crossed	different	same	50	right	lower	left	lower	1	465	ses-1	657
sub-13	2	278	crossed	same	same	100	right	lower	right	lower	0	1021	ses-1	658
sub-13	2	279	crossed	different	different	800	right	lower	left	upper	1	548	ses-1	659
sub-13	2	280	crossed	same	same	300	left	lower	left	lower	1	940	ses-1	660
sub-13	2	281	crossed	different	same	800	left	lower	right	lower	1	839	ses-1	661
sub-13	2	282	crossed	same	different	100	left	upper	left	lower	0	1356	ses-1	662
sub-13	2	283	crossed	same	same	100	right	lower	right	lower	1	995	ses-1	663
sub-13	2	284	crossed	different	different	100	left	upper	right	lower	1	893	ses-1	664
sub-13	2	285	crossed	different	different	50	right	lower	left	upper	1	650	ses-1	665
sub-13	2	286	crossed	different	different	100	left	lower	right	upper	0	1182	ses-1	666
sub-13	2	287	crossed	same	same	300	right	lower	right	lower	1	1189	ses-1	667
sub-13	2	288	crossed	different	different	100	left	upper	right	lower	0	1093	ses-1	668
sub-13	2	289	crossed	different	different	100	left	upper	right	lower	0	822	ses-1	669
sub-13	2	290	crossed	different	different	800	right	lower	left	upper	1	505	ses-1	670
sub-13	2	291	crossed	different	same	100	right	lower	left	lower	1	1006	ses-1	671
sub-13	2	292	crossed	different	different	300	left	upper	right	lower	0	954	ses-1	672
sub-13	2	293	crossed	different	same	300	left	lower	right	lower	1	1271	ses-1	673
sub-13	2	294	crossed	different	different	300	left	upper	right	lower	1	506	ses-1	674
sub-13	2	295	crossed	different	different	300	left	upper	right	lower	1	536	ses-1	675
sub-13	2	296	crossed	same	different	50	right	upper	right	lower	1	621	ses-1	676
sub-13	2	297	crossed	different	same	300	left	lower	right	lower	0	978	ses-1	677
sub-13	2	298	crossed	same	different	100	left	lower	left	upper	1	817	ses-1	678
sub-13	2	299	crossed	different	same	50	right	lower	left	lower	1	909	ses-1	679
sub-13	2	300	crossed	same	different	300	left	upper	left	lower	1	472	ses-1	680
sub-13	2	301	crossed	same	different	100	right	upper	right	lower	1	602	ses-1	681
sub-13	2	302	crossed	same	same	50	right	lower	right	lower	1	471	ses-1	682
sub-13	2	303	crossed	different	same	800	right	lower	left	lower	1	526	ses-1	683
sub-13	2	304	crossed	different	same	800	left	lower	right	lower	1	490	ses-1	684
sub-13	2	305	crossed	same	same	100	right	lower	right	lower	1	736	ses-1	685
sub-13	2	307	crossed	same	different	100	right	upper	right	lower	1	393	ses-1	686
sub-13	2	308	crossed	different	different	50	right	lower	left	upper	0	1266	ses-1	687
sub-13	2	309	crossed	different	same	300	right	lower	left	lower	1	793	ses-1	688
sub-13	2	310	crossed	different	different	800	left	upper	right	lower	0	1529	ses-1	689
sub-13	2	311	crossed	same	same	300	right	lower	right	lower	1	592	ses-1	690
sub-13	2	312	crossed	different	different	50	right	upper	left	lower	1	687	ses-1	691
sub-13	2	313	crossed	same	same	50	left	lower	left	lower	1	761	ses-1	692
sub-13	2	314	crossed	different	different	100	left	upper	right	lower	1	1095	ses-1	693
sub-13	2	315	crossed	same	different	50	right	upper	right	lower	0	850	ses-1	694
sub-13	2	316	crossed	same	different	300	left	upper	left	lower	1	1217	ses-1	695
sub-13	2	317	crossed	different	same	50	left	lower	right	lower	1	1154	ses-1	696
sub-13	2	318	crossed	different	same	50	left	lower	right	lower	1	970	ses-1	697
sub-13	2	319	crossed	same	different	100	left	upper	left	lower	1	999	ses-1	698
sub-13	2	320	crossed	different	different	100	left	lower	right	upper	1	1678	ses-1	699
sub-13	2	321	crossed	different	different	100	left	upper	right	lower	0	941	ses-1	700
sub-13	2	322	crossed	same	different	800	left	upper	left	lower	1	562	ses-1	701
sub-13	2	323	crossed	same	different	50	left	lower	left	upper	1	456	ses-1	702
sub-13	2	325	crossed	different	same	300	right	lower	left	lower	1	930	ses-1	703
sub-13	2	326	crossed	same	different	800	right	upper	right	lower	1	680	ses-1	704
sub-13	2	327	crossed	same	different	50	right	lower	right	upper	1	615	ses-1	705
sub-13	2	328	crossed	same	different	100	left	lower	left	upper	1	1281	ses-1	706
sub-13	2	329	crossed	different	different	100	right	upper	left	lower	0	942	ses-1	707
sub-13	2	330	crossed	different	same	100	left	lower	right	lower	1	829	ses-1	708
sub-13	2	331	crossed	same	same	800	left	lower	left	lower	0	610	ses-1	709
sub-13	2	332	crossed	different	same	100	right	lower	left	lower	0	722	ses-1	710
sub-13	2	333	crossed	same	different	800	left	lower	left	upper	0	683	ses-1	711
sub-13	2	334	crossed	same	same	50	left	lower	left	lower	0	704	ses-1	712
sub-13	2	335	crossed	same	same	300	left	lower	left	lower	0	563	ses-1	713
sub-13	2	336	crossed	different	same	300	right	lower	left	lower	1	754	ses-1	714
sub-13	2	337	crossed	different	same	100	right	lower	left	lower	1	664	ses-1	715
sub-13	2	338	crossed	same	same	100	left	lower	left	lower	1	468	ses-1	716
sub-13	2	339	crossed	same	same	800	left	lower	left	lower	1	483	ses-1	717
sub-13	2	340	crossed	same	different	800	left	upper	left	lower	1	381	ses-1	718
sub-13	2	341	crossed	same	different	100	right	upper	right	lower	1	540	ses-1	719
sub-13	2	342	crossed	different	same	100	left	lower	right	lower	1	832	ses-1	720
sub-13	2	343	crossed	different	different	300	right	upper	left	lower	1	705	ses-1	721
sub-13	2	344	crossed	same	same	50	left	lower	left	lower	0	1255	ses-1	722
sub-13	2	345	crossed	different	same	800	left	lower	right	lower	1	717	ses-1	723
sub-13	2	346	crossed	different	same	800	left	lower	right	lower	0	1052	ses-1	724
sub-13	2	347	crossed	same	different	800	right	lower	right	upper	1	887	ses-1	725
sub-13	2	348	crossed	different	same	800	left	lower	right	lower	1	945	ses-1	726
sub-13	2	349	crossed	same	same	50	left	lower	left	lower	0	699	ses-1	727
sub-13	2	350	crossed	different	different	100	right	lower	left	upper	1	1132	ses-1	728
sub-13	2	351	crossed	different	different	100	left	lower	right	upper	0	1197	ses-1	729
sub-13	2	352	crossed	same	different	50	left	lower	left	upper	0	552	ses-1	730
sub-13	2	353	crossed	same	same	300	right	lower	right	lower	1	754	ses-1	731
sub-13	2	354	crossed	different	different	50	left	upper	right	lower	0	933	ses-1	732
sub-13	2	355	crossed	same	different	100	right	lower	right	upper	1	577	ses-1	733
sub-13	2	356	crossed	different	same	300	right	lower	left	lower	1	800	ses-1	734
sub-13	2	357	crossed	same	different	100	right	upper	right	lower	1	1395	ses-1	735
sub-13	2	358	crossed	same	different	50	left	upper	left	lower	1	594	ses-1	736
sub-13	2	359	crossed	different	same	300	right	lower	left	lower	1	748	ses-1	737
sub-13	2	360	crossed	same	same	300	left	lower	left	lower	1	536	ses-1	738
sub-13	2	361	crossed	different	different	800	left	upper	right	lower	1	747	ses-1	739
sub-13	2	362	crossed	different	different	300	right	lower	left	upper	1	583	ses-1	740
sub-13	2	363	crossed	same	different	800	right	lower	right	upper	1	527	ses-1	741
sub-13	2	364	crossed	different	different	300	right	lower	left	upper	1	683	ses-1	742
sub-13	2	365	crossed	same	different	50	left	lower	left	upper	1	573	ses-1	743
sub-13	2	366	crossed	same	same	100	left	lower	left	lower	1	1067	ses-1	744
sub-13	2	367	crossed	same	same	100	left	lower	left	lower	1	484	ses-1	745
sub-13	2	368	crossed	same	different	300	right	lower	right	upper	1	835	ses-1	746
sub-13	2	369	crossed	same	same	800	right	lower	right	lower	1	521	ses-1	747
sub-13	2	370	crossed	different	different	100	right	upper	left	lower	0	1055	ses-1	748
sub-13	2	371	crossed	same	different	50	left	upper	left	lower	1	1475	ses-1	749
sub-13	2	372	crossed	different	different	50	left	lower	right	upper	1	762	ses-1	750
sub-13	2	373	crossed	different	same	50	right	lower	left	lower	1	502	ses-1	751
sub-13	2	374	crossed	same	different	100	left	upper	left	lower	1	748	ses-1	752
sub-13	2	375	crossed	different	same	100	left	lower	right	lower	1	723	ses-1	753
sub-13	2	376	crossed	same	same	800	right	lower	right	lower	1	574	ses-1	754
sub-13	2	377	crossed	different	same	100	right	lower	left	lower	1	1200	ses-1	755
sub-13	2	378	crossed	same	same	300	left	lower	left	lower	1	714	ses-1	756
sub-13	2	379	crossed	same	same	100	left	lower	left	lower	1	578	ses-1	757
sub-13	2	380	crossed	different	same	100	left	lower	right	lower	0	670	ses-1	758
sub-13	2	381	crossed	different	same	50	right	lower	left	lower	0	1042	ses-1	759
sub-13	2	382	crossed	same	same	100	right	lower	right	lower	1	718	ses-1	760
sub-13	2	383	crossed	different	same	300	left	lower	right	lower	1	1056	ses-1	761
sub-13	2	384	crossed	different	same	800	right	lower	left	lower	1	594	ses-1	762
sub-13	2	385	crossed	different	different	800	right	lower	left	upper	1	695	ses-1	763
sub-13	2	386	crossed	different	different	50	left	upper	right	lower	0	968	ses-1	764
sub-13	2	387	crossed	same	same	50	right	lower	right	lower	1	750	ses-1	765
sub-13	2	388	crossed	same	same	800	left	lower	left	lower	1	1234	ses-1	766
sub-13	2	389	crossed	same	different	50	right	upper	right	lower	1	524	ses-1	767
sub-13	2	390	crossed	same	different	800	left	lower	left	upper	0	1331	ses-1	768
sub-13	1	1	uncrossed	different	same	800	left	lower	right	lower	1	940	ses-1	769
sub-13	1	2	uncrossed	same	same	300	right	lower	right	lower	1	700	ses-1	770
sub-13	1	3	uncrossed	different	different	100	right	lower	left	upper	1	721	ses-1	771
sub-13	1	4	uncrossed	same	same	50	left	lower	left	lower	1	1320	ses-1	772
sub-13	1	5	uncrossed	same	different	800	right	upper	right	lower	1	1301	ses-1	773
sub-13	1	6	uncrossed	different	same	800	left	lower	right	lower	1	731	ses-1	774
sub-13	1	7	uncrossed	same	different	50	right	upper	right	lower	1	773	ses-1	775
sub-13	1	8	uncrossed	different	different	100	right	lower	left	upper	1	511	ses-1	776
sub-13	1	9	uncrossed	same	different	100	left	lower	left	upper	1	859	ses-1	777
sub-13	1	10	uncrossed	different	different	800	left	upper	right	lower	1	538	ses-1	778
sub-13	1	11	uncrossed	different	different	50	left	lower	right	upper	1	679	ses-1	779
sub-13	1	12	uncrossed	same	same	50	right	lower	right	lower	1	659	ses-1	780
sub-13	1	13	uncrossed	same	same	300	right	lower	right	lower	1	570	ses-1	781
sub-13	1	14	uncrossed	different	different	300	right	upper	left	lower	1	674	ses-1	782
sub-13	1	15	uncrossed	different	different	100	left	lower	right	upper	1	674	ses-1	783
sub-13	1	16	uncrossed	same	different	50	right	lower	right	upper	1	542	ses-1	784
sub-13	1	18	uncrossed	different	different	300	right	upper	left	lower	1	682	ses-1	785
sub-13	1	19	uncrossed	same	same	300	left	lower	left	lower	1	868	ses-1	786
sub-13	1	20	uncrossed	different	different	100	right	lower	left	upper	1	495	ses-1	787
sub-13	1	21	uncrossed	same	different	100	left	lower	left	upper	1	1136	ses-1	788
sub-13	1	22	uncrossed	same	same	100	right	lower	right	lower	1	563	ses-1	789
sub-13	1	23	uncrossed	same	different	100	left	upper	left	lower	1	408	ses-1	790
sub-13	1	24	uncrossed	different	different	50	left	upper	right	lower	1	602	ses-1	791
sub-13	1	25	uncrossed	same	same	300	left	lower	left	lower	1	577	ses-1	792
sub-13	1	26	uncrossed	same	different	800	left	upper	left	lower	1	427	ses-1	793
sub-13	1	27	uncrossed	different	same	100	left	lower	right	lower	1	639	ses-1	794
sub-13	1	28	uncrossed	same	different	100	left	lower	left	upper	1	606	ses-1	795
sub-13	1	29	uncrossed	different	same	800	right	lower	left	lower	1	709	ses-1	796
sub-13	1	30	uncrossed	different	different	100	right	upper	left	lower	1	710	ses-1	797
sub-13	1	31	uncrossed	same	same	300	left	lower	left	lower	1	489	ses-1	798
sub-13	1	32	uncrossed	different	same	50	right	lower	left	lower	1	1003	ses-1	799
sub-13	1	33	uncrossed	different	different	800	left	lower	right	upper	1	557	ses-1	800
sub-13	1	34	uncrossed	same	same	800	right	lower	right	lower	1	806	ses-1	801
sub-13	1	35	uncrossed	same	same	300	right	lower	right	lower	1	499	ses-1	802
sub-13	1	36	uncrossed	different	different	800	right	lower	left	upper	1	410	ses-1	803
sub-13	1	37	uncrossed	different	same	100	right	lower	left	lower	1	674	ses-1	804
sub-13	1	38	uncrossed	different	same	300	left	lower	right	lower	1	948	ses-1	805
sub-13	1	39	uncrossed	different	same	300	right	lower	left	lower	1	532	ses-1	806
sub-13	1	40	uncrossed	same	different	50	right	upper	right	lower	1	465	ses-1	807
sub-13	1	41	uncrossed	same	different	50	left	lower	left	upper	0	588	ses-1	808
sub-13	1	42	uncrossed	same	different	800	left	upper	left	lower	1	744	ses-1	809
sub-13	1	43	uncrossed	same	different	50	left	lower	left	upper	1	1311	ses-1	810
sub-13	1	44	uncrossed	same	same	100	right	lower	right	lower	1	458	ses-1	811
sub-13	1	45	uncrossed	different	same	800	left	lower	right	lower	1	561	ses-1	812
sub-13	1	46	uncrossed	same	different	100	right	lower	right	upper	1	552	ses-1	813
sub-13	1	47	uncrossed	different	same	100	left	lower	right	lower	1	619	ses-1	814
sub-13	1	48	uncrossed	different	same	300	right	lower	left	lower	1	515	ses-1	815
sub-13	1	49	uncrossed	same	different	100	right	lower	right	upper	1	775	ses-1	816
sub-13	1	50	uncrossed	same	different	100	left	upper	left	lower	1	464	ses-1	817
sub-13	1	51	uncrossed	different	same	100	right	lower	left	lower	1	534	ses-1	818
sub-13	1	52	uncrossed	different	same	100	right	lower	left	lower	1	548	ses-1	819
sub-13	1	53	uncrossed	same	different	300	left	upper	left	lower	1	636	ses-1	820
sub-13	1	54	uncrossed	different	different	800	right	upper	left	lower	1	836	ses-1	821
sub-13	1	55	uncrossed	same	different	300	left	upper	left	lower	1	538	ses-1	822
sub-13	1	56	uncrossed	same	different	800	right	upper	right	lower	1	544	ses-1	823
sub-13	1	57	uncrossed	same	same	50	left	lower	left	lower	1	726	ses-1	824
sub-13	1	58	uncrossed	different	same	800	left	lower	right	lower	1	430	ses-1	825
sub-13	1	59	uncrossed	different	same	100	right	lower	left	lower	0	647	ses-1	826
sub-13	1	60	uncrossed	different	different	50	left	lower	right	upper	1	678	ses-1	827
sub-13	1	61	uncrossed	different	different	300	left	lower	right	upper	1	435	ses-1	828
sub-13	1	62	uncrossed	same	different	300	right	upper	right	lower	1	503	ses-1	829
sub-13	1	64	uncrossed	same	same	800	left	lower	left	lower	1	608	ses-1	830
sub-13	1	65	uncrossed	same	same	800	right	lower	right	lower	1	633	ses-1	831
sub-13	1	66	uncrossed	different	different	300	right	lower	left	upper	1	484	ses-1	832
sub-13	1	67	uncrossed	same	different	300	left	lower	left	upper	1	861	ses-1	833
sub-13	1	68	uncrossed	same	same	100	left	lower	left	lower	1	397	ses-1	834
sub-13	1	69	uncrossed	same	different	50	right	upper	right	lower	1	560	ses-1	835
sub-13	1	70	uncrossed	different	same	300	right	lower	left	lower	1	619	ses-1	836
sub-13	1	71	uncrossed	different	same	100	right	lower	left	lower	0	470	ses-1	837
sub-13	1	72	uncrossed	same	different	300	left	upper	left	lower	1	586	ses-1	838
sub-13	1	73	uncrossed	different	same	300	right	lower	left	lower	1	631	ses-1	839
sub-13	1	75	uncrossed	same	different	300	right	lower	right	upper	1	574	ses-1	840
sub-13	1	76	uncrossed	same	same	50	left	lower	left	lower	1	594	ses-1	841
sub-13	1	77	uncrossed	different	different	800	left	lower	right	upper	1	376	ses-1	842
sub-13	1	78	uncrossed	same	different	50	left	lower	left	upper	1	597	ses-1	843
sub-13	1	79	uncrossed	same	different	50	left	upper	left	lower	1	495	ses-1	844
sub-13	1	80	uncrossed	same	different	50	left	lower	left	upper	1	423	ses-1	845
sub-13	1	81	uncrossed	same	different	300	right	lower	right	upper	1	786	ses-1	846
sub-13	1	82	uncrossed	different	different	50	right	lower	left	upper	1	656	ses-1	847
sub-13	1	83	uncrossed	different	different	50	right	lower	left	upper	1	741	ses-1	848
sub-13	1	84	uncrossed	same	same	100	right	lower	right	lower	1	473	ses-1	849
sub-13	1	85	uncrossed	different	same	300	left	lower	right	lower	1	890	ses-1	850
sub-13	1	86	uncrossed	same	same	50	right	lower	right	lower	1	516	ses-1	851
sub-13	1	87	uncrossed	different	same	300	left	lower	right	lower	1	615	ses-1	852
sub-13	1	88	uncrossed	same	different	800	left	upper	left	lower	1	590	ses-1	853
sub-13	1	89	uncrossed	same	different	300	left	upper	left	lower	1	638	ses-1	854
sub-13	1	90	uncrossed	different	different	100	right	upper	left	lower	1	543	ses-1	855
sub-13	1	91	uncrossed	different	different	800	right	upper	left	lower	1	495	ses-1	856
sub-13	1	92	uncrossed	different	same	300	left	lower	right	lower	1	833	ses-1	857
sub-13	1	93	uncrossed	same	same	800	right	lower	right	lower	1	605	ses-1	858
sub-13	1	94	uncrossed	different	same	300	right	lower	left	lower	1	679	ses-1	859
sub-13	1	95	uncrossed	same	same	800	left	lower	left	lower	1	572	ses-1	860
sub-13	1	96	uncrossed	different	different	300	left	upper	right	lower	1	487	ses-1	861
sub-13	1	97	uncrossed	same	same	50	right	lower	right	lower	1	660	ses-1	862
sub-13	1	98	uncrossed	same	same	300	right	lower	right	lower	1	821	ses-1	863
sub-13	1	99	uncrossed	different	different	300	left	upper	right	lower	1	655	ses-1	864
sub-13	1	100	uncrossed	different	different	50	right	upper	left	lower	1	600	ses-1	865
sub-13	1	101	uncrossed	same	different	50	left	upper	left	lower	1	516	ses-1	866
sub-13	1	102	uncrossed	same	same	100	right	lower	right	lower	1	617	ses-1	867
sub-13	1	103	uncrossed	same	different	800	right	lower	right	upper	1	536	ses-1	868
sub-13	1	105	uncrossed	different	different	800	right	upper	left	lower	1	491	ses-1	869
sub-13	1	106	uncrossed	different	different	50	left	lower	right	upper	1	582	ses-1	870
sub-13	1	107	uncrossed	different	different	50	left	upper	right	lower	1	629	ses-1	871
sub-13	1	108	uncrossed	different	same	100	left	lower	right	lower	1	413	ses-1	872
sub-13	1	109	uncrossed	same	different	50	left	upper	left	lower	1	474	ses-1	873
sub-13	1	110	uncrossed	same	different	800	right	upper	right	lower	1	533	ses-1	874
sub-13	1	111	uncrossed	different	same	100	right	lower	left	lower	1	543	ses-1	875
sub-13	1	112	uncrossed	different	same	100	left	lower	right	lower	1	571	ses-1	876
sub-13	1	113	uncrossed	different	different	300	left	upper	right	lower	1	476	ses-1	877
sub-13	1	114	uncrossed	different	same	50	left	lower	right	lower	1	708	ses-1	878
sub-13	1	115	uncrossed	different	same	100	right	lower	left	lower	1	539	ses-1	879
sub-13	1	117	uncrossed	different	same	300	right	lower	left	lower	1	430	ses-1	880
sub-13	1	118	uncrossed	same	same	300	right	lower	right	lower	1	506	ses-1	881
sub-13	1	119	uncrossed	same	different	800	right	lower	right	upper	1	603	ses-1	882
sub-13	1	120	uncrossed	same	same	800	right	lower	right	lower	1	424	ses-1	883
sub-13	1	121	uncrossed	same	same	800	left	lower	left	lower	1	457	ses-1	884
sub-13	1	122	uncrossed	different	different	100	left	upper	right	lower	1	615	ses-1	885
sub-13	1	123	uncrossed	different	different	50	left	upper	right	lower	1	705	ses-1	886
sub-13	1	124	uncrossed	different	same	50	right	lower	left	lower	1	624	ses-1	887
sub-13	1	125	uncrossed	same	same	50	right	lower	right	lower	1	1015	ses-1	888
sub-13	1	126	uncrossed	different	same	100	right	lower	left	lower	0	599	ses-1	889
sub-13	1	127	uncrossed	same	same	50	left	lower	left	lower	0	476	ses-1	890
sub-13	1	128	uncrossed	same	same	300	right	lower	right	lower	1	598	ses-1	891
sub-13	1	130	uncrossed	different	same	300	left	lower	right	lower	1	621	ses-1	892
sub-13	1	131	uncrossed	same	same	50	right	lower	right	lower	1	593	ses-1	893
sub-13	1	132	uncrossed	same	different	800	left	lower	left	upper	1	796	ses-1	894
sub-13	1	133	uncrossed	same	same	100	left	lower	left	lower	1	480	ses-1	895
sub-13	1	134	uncrossed	different	same	300	left	lower	right	lower	1	477	ses-1	896
sub-13	1	135	uncrossed	different	same	300	right	lower	left	lower	0	384	ses-1	897
sub-13	1	136	uncrossed	same	same	800	right	lower	right	lower	1	603	ses-1	898
sub-13	1	137	uncrossed	different	same	300	right	lower	left	lower	1	865	ses-1	899
sub-13	1	138	uncrossed	same	different	300	right	upper	right	lower	1	462	ses-1	900
sub-13	1	139	uncrossed	different	different	100	left	lower	right	upper	1	552	ses-1	901
sub-13	1	140	uncrossed	same	different	300	left	lower	left	upper	1	1069	ses-1	902
sub-13	1	141	uncrossed	different	different	100	left	upper	right	lower	1	595	ses-1	903
sub-13	1	142	uncrossed	different	same	50	left	lower	right	lower	1	534	ses-1	904
sub-13	1	143	uncrossed	different	same	800	left	lower	right	lower	1	491	ses-1	905
sub-13	1	144	uncrossed	different	different	100	right	upper	left	lower	1	513	ses-1	906
sub-13	1	145	uncrossed	same	same	100	left	lower	left	lower	1	571	ses-1	907
sub-13	1	146	uncrossed	different	different	800	right	lower	left	upper	1	529	ses-1	908
sub-13	1	147	uncrossed	different	same	50	right	lower	left	lower	0	1086	ses-1	909
sub-13	1	148	uncrossed	same	different	50	left	lower	left	upper	1	921	ses-1	910
sub-13	1	149	uncrossed	same	different	100	right	upper	right	lower	1	622	ses-1	911
sub-13	1	150	uncrossed	same	same	50	left	lower	left	lower	1	466	ses-1	912
sub-13	1	151	uncrossed	same	different	100	left	upper	left	lower	1	425	ses-1	913
sub-13	1	152	uncrossed	different	different	800	right	lower	left	upper	1	447	ses-1	914
sub-13	1	154	uncrossed	same	same	300	left	lower	left	lower	1	425	ses-1	915
sub-13	1	155	uncrossed	same	different	50	left	lower	left	upper	1	512	ses-1	916
sub-13	1	157	uncrossed	different	different	300	right	upper	left	lower	1	560	ses-1	917
sub-13	1	158	uncrossed	different	different	300	right	upper	left	lower	1	515	ses-1	918
sub-13	1	159	uncrossed	different	same	800	left	lower	right	lower	1	540	ses-1	919
sub-13	1	160	uncrossed	same	different	800	right	lower	right	upper	1	578	ses-1	920
sub-13	1	161	uncrossed	same	different	300	right	upper	right	lower	1	514	ses-1	921
sub-13	1	162	uncrossed	same	different	100	right	lower	right	upper	1	571	ses-1	922
sub-13	1	163	uncrossed	same	different	300	left	lower	left	upper	1	573	ses-1	923
sub-13	1	164	uncrossed	same	same	300	left	lower	left	lower	1	406	ses-1	924
sub-13	1	165	uncrossed	same	same	50	left	lower	left	lower	1	457	ses-1	925
sub-13	1	166	uncrossed	same	same	800	left	lower	left	lower	1	495	ses-1	926
sub-13	1	167	uncrossed	different	same	50	right	lower	left	lower	1	707	ses-1	927
sub-13	1	168	uncrossed	same	different	800	left	upper	left	lower	1	558	ses-1	928
sub-13	1	169	uncrossed	same	same	50	right	lower	right	lower	1	913	ses-1	929
sub-13	1	170	uncrossed	different	same	100	left	lower	right	lower	1	639	ses-1	930
sub-13	1	172	uncrossed	same	same	50	right	lower	right	lower	1	691	ses-1	931
sub-13	1	173	uncrossed	different	different	100	right	upper	left	lower	1	581	ses-1	932
sub-13	1	174	uncrossed	different	same	800	right	lower	left	lower	1	462	ses-1	933
sub-13	1	175	uncrossed	different	different	50	right	lower	left	upper	1	560	ses-1	934
sub-13	1	176	uncrossed	different	same	800	right	lower	left	lower	1	469	ses-1	935
sub-13	1	177	uncrossed	same	same	100	right	lower	right	lower	1	660	ses-1	936
sub-13	1	178	uncrossed	different	different	100	left	lower	right	upper	1	425	ses-1	937
sub-13	1	179	uncrossed	different	same	300	right	lower	left	lower	1	961	ses-1	938
sub-13	1	180	uncrossed	different	same	800	right	lower	left	lower	1	718	ses-1	939
sub-13	1	181	uncrossed	same	same	50	left	lower	left	lower	1	605	ses-1	940
sub-13	1	182	uncrossed	different	same	300	right	lower	left	lower	1	459	ses-1	941
sub-13	1	183	uncrossed	same	different	100	left	upper	left	lower	1	559	ses-1	942
sub-13	1	184	uncrossed	different	different	100	left	lower	right	upper	1	477	ses-1	943
sub-13	1	185	uncrossed	same	same	800	left	lower	left	lower	1	528	ses-1	944
sub-13	1	186	uncrossed	same	different	800	right	upper	right	lower	1	595	ses-1	945
sub-13	1	187	uncrossed	different	same	50	left	lower	right	lower	1	596	ses-1	946
sub-13	1	188	uncrossed	same	same	50	right	lower	right	lower	1	539	ses-1	947
sub-13	1	189	uncrossed	same	same	800	right	lower	right	lower	1	635	ses-1	948
sub-13	1	190	uncrossed	same	same	50	left	lower	left	lower	1	869	ses-1	949
sub-13	1	191	uncrossed	different	same	100	left	lower	right	lower	1	489	ses-1	950
sub-13	1	192	uncrossed	different	same	300	left	lower	right	lower	1	414	ses-1	951
sub-13	1	193	uncrossed	different	different	800	left	upper	right	lower	1	672	ses-1	952
sub-13	1	194	uncrossed	different	different	300	right	lower	left	upper	1	558	ses-1	953
sub-13	1	195	uncrossed	different	same	800	right	lower	left	lower	1	780	ses-1	954
sub-13	1	196	uncrossed	different	different	300	left	lower	right	upper	1	753	ses-1	955
sub-13	1	197	uncrossed	same	different	300	right	lower	right	upper	1	607	ses-1	956
sub-13	1	198	uncrossed	same	different	300	left	lower	left	upper	1	576	ses-1	957
sub-13	1	199	uncrossed	same	different	100	left	upper	left	lower	1	537	ses-1	958
sub-13	1	200	uncrossed	different	different	300	left	lower	right	upper	1	664	ses-1	959
sub-13	1	201	uncrossed	same	same	300	left	lower	left	lower	1	568	ses-1	960
sub-13	1	202	uncrossed	same	different	100	right	upper	right	lower	1	550	ses-1	961
sub-13	1	203	uncrossed	different	same	800	right	lower	left	lower	1	517	ses-1	962
sub-13	1	204	uncrossed	same	different	100	right	upper	right	lower	1	450	ses-1	963
sub-13	1	205	uncrossed	same	same	100	right	lower	right	lower	1	557	ses-1	964
sub-13	1	206	uncrossed	same	different	100	left	lower	left	upper	1	404	ses-1	965
sub-13	1	207	uncrossed	same	same	800	right	lower	right	lower	1	508	ses-1	966
sub-13	1	208	uncrossed	different	same	800	right	lower	left	lower	1	577	ses-1	967
sub-13	1	209	uncrossed	different	same	50	left	lower	right	lower	1	654	ses-1	968
sub-13	1	210	uncrossed	different	different	100	left	upper	right	lower	1	588	ses-1	969
sub-13	1	211	uncrossed	same	same	50	left	lower	left	lower	1	419	ses-1	970
sub-13	1	212	uncrossed	different	same	50	right	lower	left	lower	1	558	ses-1	971
sub-13	1	213	uncrossed	same	same	50	left	lower	left	lower	1	455	ses-1	972
sub-13	1	214	uncrossed	same	same	100	right	lower	right	lower	1	841	ses-1	973
sub-13	1	215	uncrossed	same	different	300	right	lower	right	upper	1	467	ses-1	974
sub-13	1	216	uncrossed	same	same	300	left	lower	left	lower	1	459	ses-1	975
sub-13	1	217	uncrossed	different	same	800	left	lower	right	lower	1	598	ses-1	976
sub-13	1	218	uncrossed	different	same	800	left	lower	right	lower	1	996	ses-1	977
sub-13	1	219	uncrossed	same	same	300	left	lower	left	lower	1	630	ses-1	978
sub-13	1	220	uncrossed	same	same	100	right	lower	right	lower	1	565	ses-1	979
sub-13	1	221	uncrossed	same	same	300	right	lower	right	lower	1	439	ses-1	980
sub-13	1	222	uncrossed	same	same	300	right	lower	right	lower	1	323	ses-1	981
sub-13	1	223	uncrossed	same	different	50	right	upper	right	lower	1	314	ses-1	982
sub-13	1	224	uncrossed	same	different	800	left	lower	left	upper	1	730	ses-1	983
sub-13	1	225	uncrossed	different	same	50	right	lower	left	lower	1	699	ses-1	984
sub-13	1	226	uncrossed	different	different	800	left	lower	right	upper	1	460	ses-1	985
sub-13	1	227	uncrossed	same	same	800	left	lower	left	lower	1	1093	ses-1	986
sub-13	1	228	uncrossed	different	different	100	left	lower	right	upper	1	1053	ses-1	987
sub-13	1	229	uncrossed	different	different	100	left	upper	right	lower	1	587	ses-1	988
sub-13	1	230	uncrossed	different	different	300	left	upper	right	lower	1	867	ses-1	989
sub-13	1	231	uncrossed	different	same	50	left	lower	right	lower	1	602	ses-1	990
sub-13	1	232	uncrossed	different	same	50	right	lower	left	lower	1	418	ses-1	991
sub-13	1	233	uncrossed	same	same	100	right	lower	right	lower	1	687	ses-1	992
sub-13	1	234	uncrossed	same	same	100	left	lower	left	lower	0	678	ses-1	993
sub-13	1	235	uncrossed	same	same	300	right	lower	right	lower	1	519	ses-1	994
sub-13	1	236	uncrossed	same	different	50	left	upper	left	lower	1	479	ses-1	995
sub-13	1	237	uncrossed	different	different	100	right	lower	left	upper	1	456	ses-1	996
sub-13	1	238	uncrossed	different	same	100	right	lower	left	lower	1	575	ses-1	997
sub-13	1	239	uncrossed	same	same	50	right	lower	right	lower	1	1156	ses-1	998
sub-13	1	240	uncrossed	same	different	50	right	lower	right	upper	1	623	ses-1	999
sub-13	1	241	uncrossed	different	same	800	right	lower	left	lower	1	559	ses-1	1000
sub-13	1	242	uncrossed	same	same	800	left	lower	left	lower	1	537	ses-1	1001
sub-13	1	243	uncrossed	different	same	800	left	lower	right	lower	1	868	ses-1	1002
sub-13	1	244	uncrossed	different	same	100	left	lower	right	lower	1	476	ses-1	1003
sub-13	1	245	uncrossed	same	same	100	left	lower	left	lower	1	541	ses-1	1004
sub-13	1	246	uncrossed	same	same	800	right	lower	right	lower	1	508	ses-1	1005
sub-13	1	248	uncrossed	same	same	800	left	lower	left	lower	1	548	ses-1	1006
sub-13	1	249	uncrossed	same	same	300	right	lower	right	lower	1	562	ses-1	1007
sub-13	1	250	uncrossed	same	same	50	left	lower	left	lower	1	522	ses-1	1008
sub-13	1	251	uncrossed	same	same	300	left	lower	left	lower	1	447	ses-1	1009
sub-13	1	252	uncrossed	same	different	50	left	upper	left	lower	1	337	ses-1	1010
sub-13	1	253	uncrossed	same	same	100	left	lower	left	lower	1	300	ses-1	1011
sub-13	1	254	uncrossed	same	different	800	right	lower	right	upper	0	926	ses-1	1012
sub-13	1	255	uncrossed	same	same	800	right	lower	right	lower	1	741	ses-1	1013
sub-13	1	256	uncrossed	same	same	300	left	lower	left	lower	1	425	ses-1	1014
sub-13	1	257	uncrossed	different	different	50	left	upper	right	lower	1	565	ses-1	1015
sub-13	1	258	uncrossed	different	same	50	right	lower	left	lower	1	467	ses-1	1016
sub-13	1	259	uncrossed	same	same	100	left	lower	left	lower	1	533	ses-1	1017
sub-13	1	260	uncrossed	same	same	100	left	lower	left	lower	1	408	ses-1	1018
sub-13	1	261	uncrossed	same	different	800	left	upper	left	lower	1	467	ses-1	1019
sub-13	1	262	uncrossed	same	different	50	left	upper	left	lower	1	468	ses-1	1020
sub-13	1	263	uncrossed	same	different	300	left	lower	left	upper	1	1056	ses-1	1021
sub-13	1	264	uncrossed	same	different	800	left	lower	left	upper	1	400	ses-1	1022
sub-13	1	265	uncrossed	different	different	100	right	lower	left	upper	1	521	ses-1	1023
sub-13	1	266	uncrossed	different	different	800	left	lower	right	upper	1	452	ses-1	1024
sub-13	1	267	uncrossed	different	same	50	left	lower	right	lower	1	529	ses-1	1025
sub-13	1	268	uncrossed	same	different	300	right	upper	right	lower	1	662	ses-1	1026
sub-13	1	270	uncrossed	different	different	300	left	lower	right	upper	1	539	ses-1	1027
sub-13	1	271	uncrossed	different	different	800	right	upper	left	lower	1	498	ses-1	1028
sub-13	1	272	uncrossed	different	same	50	left	lower	right	lower	1	574	ses-1	1029
sub-13	1	273	uncrossed	different	same	300	right	lower	left	lower	1	1065	ses-1	1030
sub-13	1	274	uncrossed	different	different	100	left	lower	right	upper	1	532	ses-1	1031
sub-13	1	275	uncrossed	different	same	100	left	lower	right	lower	1	435	ses-1	1032
sub-13	1	276	uncrossed	different	same	800	right	lower	left	lower	1	525	ses-1	1033
sub-13	1	277	uncrossed	same	same	800	left	lower	left	lower	1	759	ses-1	1034
sub-13	1	278	uncrossed	same	different	800	left	lower	left	upper	0	611	ses-1	1035
sub-13	1	279	uncrossed	different	different	100	left	upper	right	lower	1	769	ses-1	1036
sub-13	1	280	uncrossed	different	different	50	right	lower	left	upper	1	499	ses-1	1037
sub-13	1	281	uncrossed	same	same	300	right	lower	right	lower	1	619	ses-1	1038
sub-13	1	282	uncrossed	different	different	50	right	upper	left	lower	1	718	ses-1	1039
sub-13	1	283	uncrossed	same	different	50	right	upper	right	lower	1	474	ses-1	1040
sub-13	1	284	uncrossed	same	same	100	right	lower	right	lower	1	665	ses-1	1041
sub-13	1	285	uncrossed	same	different	800	left	lower	left	upper	1	531	ses-1	1042
sub-13	1	286	uncrossed	different	same	50	left	lower	right	lower	1	452	ses-1	1043
sub-13	1	287	uncrossed	same	different	300	right	upper	right	lower	1	575	ses-1	1044
sub-13	1	288	uncrossed	same	same	800	right	lower	right	lower	1	430	ses-1	1045
sub-13	1	289	uncrossed	different	same	100	right	lower	left	lower	1	600	ses-1	1046
sub-13	1	290	uncrossed	different	same	100	left	lower	right	lower	1	567	ses-1	1047
sub-13	1	292	uncrossed	different	same	300	right	lower	left	lower	1	593	ses-1	1048
sub-13	1	293	uncrossed	different	different	300	left	upper	right	lower	1	644	ses-1	1049
sub-13	1	294	uncrossed	same	different	800	right	upper	right	lower	1	573	ses-1	1050
sub-13	1	295	uncrossed	different	same	50	left	lower	right	lower	0	533	ses-1	1051
sub-13	1	296	uncrossed	different	same	800	right	lower	left	lower	1	518	ses-1	1052
sub-13	1	297	uncrossed	same	different	300	right	upper	right	lower	1	474	ses-1	1053
sub-13	1	298	uncrossed	different	different	800	left	upper	right	lower	1	498	ses-1	1054
sub-13	1	299	uncrossed	same	different	100	right	upper	right	lower	1	568	ses-1	1055
sub-13	1	300	uncrossed	same	same	800	right	lower	right	lower	1	682	ses-1	1056
sub-13	1	301	uncrossed	same	different	800	right	lower	right	upper	1	503	ses-1	1057
sub-13	1	302	uncrossed	same	different	100	left	lower	left	upper	1	465	ses-1	1058
sub-13	1	303	uncrossed	different	different	800	left	lower	right	upper	1	411	ses-1	1059
sub-13	1	304	uncrossed	different	same	100	right	lower	left	lower	1	546	ses-1	1060
sub-13	1	305	uncrossed	different	different	50	left	lower	right	upper	1	508	ses-1	1061
sub-13	1	306	uncrossed	different	different	800	left	lower	right	upper	1	461	ses-1	1062
sub-13	1	307	uncrossed	same	different	300	right	lower	right	upper	1	550	ses-1	1063
sub-13	1	308	uncrossed	different	different	50	right	upper	left	lower	1	617	ses-1	1064
sub-13	1	309	uncrossed	different	different	800	left	upper	right	lower	1	504	ses-1	1065
sub-13	1	310	uncrossed	different	same	50	left	lower	right	lower	1	474	ses-1	1066
sub-13	1	311	uncrossed	different	different	50	right	upper	left	lower	1	402	ses-1	1067
sub-13	1	313	uncrossed	different	different	50	right	upper	left	lower	1	712	ses-1	1068
sub-13	1	314	uncrossed	same	different	50	right	lower	right	upper	1	638	ses-1	1069
sub-13	1	315	uncrossed	different	different	50	right	upper	left	lower	1	467	ses-1	1070
sub-13	1	316	uncrossed	same	same	100	left	lower	left	lower	1	683	ses-1	1071
sub-13	1	317	uncrossed	same	different	50	right	lower	right	upper	1	523	ses-1	1072
sub-13	1	318	uncrossed	same	same	100	left	lower	left	lower	1	505	ses-1	1073
sub-13	1	319	uncrossed	different	same	50	right	lower	left	lower	1	807	ses-1	1074
sub-13	1	320	uncrossed	different	different	100	right	upper	left	lower	1	1487	ses-1	1075
sub-13	1	321	uncrossed	same	different	300	left	upper	left	lower	1	448	ses-1	1076
sub-13	1	322	uncrossed	same	same	100	left	lower	left	lower	1	362	ses-1	1077
sub-13	1	323	uncrossed	different	different	100	right	lower	left	upper	0	406	ses-1	1078
sub-13	1	324	uncrossed	different	same	300	left	lower	right	lower	1	596	ses-1	1079
sub-13	1	325	uncrossed	different	same	50	right	lower	left	lower	1	591	ses-1	1080
sub-13	1	326	uncrossed	different	different	50	left	lower	right	upper	1	402	ses-1	1081
sub-13	1	327	uncrossed	same	same	100	right	lower	right	lower	1	610	ses-1	1082
sub-13	1	328	uncrossed	different	different	50	left	upper	right	lower	0	393	ses-1	1083
sub-13	1	329	uncrossed	same	different	50	right	lower	right	upper	1	588	ses-1	1084
sub-13	1	330	uncrossed	different	different	300	right	upper	left	lower	1	1047	ses-1	1085
sub-13	1	331	uncrossed	same	same	800	left	lower	left	lower	1	486	ses-1	1086
sub-13	1	332	uncrossed	different	different	800	right	upper	left	lower	1	612	ses-1	1087
sub-13	1	333	uncrossed	same	different	800	left	lower	left	upper	1	505	ses-1	1088
sub-13	1	334	uncrossed	different	same	800	right	lower	left	lower	1	537	ses-1	1089
sub-13	1	335	uncrossed	different	same	800	left	lower	right	lower	1	637	ses-1	1090
sub-13	1	336	uncrossed	same	different	100	right	lower	right	upper	1	422	ses-1	1091
sub-13	1	337	uncrossed	different	different	50	right	lower	left	upper	1	487	ses-1	1092
sub-13	1	338	uncrossed	different	same	300	left	lower	right	lower	1	996	ses-1	1093
sub-13	1	340	uncrossed	same	different	300	left	upper	left	lower	1	1557	ses-1	1094
sub-13	1	342	uncrossed	same	same	50	right	lower	right	lower	1	610	ses-1	1095
sub-13	1	343	uncrossed	different	different	800	right	lower	left	upper	1	547	ses-1	1096
sub-13	1	344	uncrossed	same	same	300	left	lower	left	lower	1	389	ses-1	1097
sub-13	1	345	uncrossed	different	same	300	left	lower	right	lower	1	839	ses-1	1098
sub-13	1	347	uncrossed	same	different	50	right	upper	right	lower	1	820	ses-1	1099
sub-13	1	348	uncrossed	same	same	100	right	lower	right	lower	1	344	ses-1	1100
sub-13	1	349	uncrossed	same	different	100	right	lower	right	upper	1	361	ses-1	1101
sub-13	1	350	uncrossed	different	same	100	left	lower	right	lower	1	365	ses-1	1102
sub-13	1	351	uncrossed	different	different	50	right	lower	left	upper	1	408	ses-1	1103
sub-13	1	352	uncrossed	same	same	800	left	lower	left	lower	1	561	ses-1	1104
sub-13	1	353	uncrossed	different	same	50	left	lower	right	lower	1	438	ses-1	1105
sub-13	1	354	uncrossed	different	same	800	right	lower	left	lower	1	626	ses-1	1106
sub-13	1	355	uncrossed	same	different	800	left	upper	left	lower	1	560	ses-1	1107
sub-13	1	356	uncrossed	different	same	800	left	lower	right	lower	1	524	ses-1	1108
sub-13	1	357	uncrossed	same	different	100	left	lower	left	upper	1	688	ses-1	1109
sub-13	1	358	uncrossed	different	different	800	right	upper	left	lower	1	534	ses-1	1110
sub-13	1	359	uncrossed	different	same	50	left	lower	right	lower	1	606	ses-1	1111
sub-13	1	360	uncrossed	same	same	800	left	lower	left	lower	1	493	ses-1	1112
sub-13	1	361	uncrossed	different	different	800	right	lower	left	upper	1	602	ses-1	1113
sub-13	1	362	uncrossed	different	different	50	left	lower	right	upper	1	571	ses-1	1114
sub-13	1	363	uncrossed	same	same	100	left	lower	left	lower	1	541	ses-1	1115
sub-13	1	364	uncrossed	same	different	800	right	lower	right	upper	1	629	ses-1	1116
sub-13	1	365	uncrossed	same	different	100	right	lower	right	upper	1	572	ses-1	1117
sub-13	1	366	uncrossed	different	different	300	left	lower	right	upper	1	406	ses-1	1118
sub-13	1	367	uncrossed	different	different	300	left	lower	right	upper	1	451	ses-1	1119
sub-13	1	368	uncrossed	different	same	800	left	lower	right	lower	1	552	ses-1	1120
sub-13	1	369	uncrossed	different	same	100	right	lower	left	lower	1	387	ses-1	1121
sub-13	1	370	uncrossed	different	different	100	right	upper	left	lower	1	348	ses-1	1122
sub-13	1	371	uncrossed	same	same	300	left	lower	left	lower	1	470	ses-1	1123
sub-13	1	372	uncrossed	different	same	50	right	lower	left	lower	1	526	ses-1	1124
sub-13	1	373	uncrossed	different	different	800	left	upper	right	lower	1	451	ses-1	1125
sub-13	1	374	uncrossed	same	different	100	right	upper	right	lower	1	561	ses-1	1126
sub-13	1	375	uncrossed	different	different	800	right	lower	left	upper	1	439	ses-1	1127
sub-13	1	376	uncrossed	same	different	800	right	upper	right	lower	1	630	ses-1	1128
sub-13	1	377	uncrossed	different	same	300	left	lower	right	lower	1	832	ses-1	1129
sub-13	1	378	uncrossed	same	different	50	right	lower	right	upper	1	478	ses-1	1130
sub-13	1	379	uncrossed	different	different	300	left	upper	right	lower	1	585	ses-1	1131
sub-13	1	380	uncrossed	same	different	100	left	upper	left	lower	1	519	ses-1	1132
sub-13	1	381	uncrossed	same	same	300	right	lower	right	lower	1	507	ses-1	1133
sub-13	1	382	uncrossed	same	different	100	right	upper	right	lower	1	308	ses-1	1134
sub-13	1	383	uncrossed	same	same	50	left	lower	left	lower	1	751	ses-1	1135
sub-13	1	385	uncrossed	same	different	300	left	lower	left	upper	1	407	ses-1	1136
sub-13	1	386	uncrossed	different	same	300	left	lower	right	lower	1	805	ses-1	1137
sub-13	1	387	uncrossed	different	different	50	left	upper	right	lower	1	606	ses-1	1138
sub-13	1	388	uncrossed	same	different	300	right	lower	right	upper	1	455	ses-1	1139
sub-13	1	389	uncrossed	different	different	100	left	upper	right	lower	1	543	ses-1	1140
sub-13	1	390	uncrossed	different	different	300	right	lower	left	upper	1	497	ses-1	1141
sub-13	1	391	uncrossed	different	different	300	right	lower	left	upper	1	431	ses-1	1142
sub-13	1	392	uncrossed	same	same	50	right	lower	right	lower	1	517	ses-1	1143
sub-13	1	393	uncrossed	different	different	300	right	upper	left	lower	1	462	ses-1	1144
sub-13	1	394	uncrossed	different	same	50	right	lower	left	lower	1	630	ses-1	1145
sub-13	1	395	uncrossed	different	same	100	left	lower	right	lower	1	427	ses-1	1146
sub-13	1	396	uncrossed	different	different	800	left	upper	right	lower	1	535	ses-1	1147
sub-13	1	397	uncrossed	same	same	800	right	lower	right	lower	1	610	ses-1	1148
sub-13	1	398	uncrossed	same	same	50	right	lower	right	lower	1	520	ses-1	1149
sub-13	1	399	uncrossed	different	different	300	right	lower	left	upper	1	551	ses-1	1150
sub-13	1	400	uncrossed	different	different	300	right	lower	left	upper	1	402	ses-1	1151
sub-13	1	401	uncrossed	different	same	100	left	lower	right	lower	1	727	ses-1	1152
sub-13	2	1	uncrossed	same	same	100	left	lower	left	lower	1	744	ses-1	1153
sub-13	2	2	uncrossed	same	different	800	right	lower	right	upper	1	510	ses-1	1154
sub-13	2	3	uncrossed	different	different	100	left	lower	right	upper	1	524	ses-1	1155
sub-13	2	4	uncrossed	different	same	800	left	lower	right	lower	1	404	ses-1	1156
sub-13	2	5	uncrossed	different	different	800	left	lower	right	upper	1	500	ses-1	1157
sub-13	2	6	uncrossed	different	same	50	right	lower	left	lower	1	620	ses-1	1158
sub-13	2	7	uncrossed	different	different	100	left	lower	right	upper	1	500	ses-1	1159
sub-13	2	8	uncrossed	same	same	100	left	lower	left	lower	1	572	ses-1	1160
sub-13	2	9	uncrossed	different	same	100	right	lower	left	lower	1	547	ses-1	1161
sub-13	2	10	uncrossed	different	different	100	right	upper	left	lower	1	519	ses-1	1162
sub-13	2	11	uncrossed	same	different	50	left	lower	left	upper	1	558	ses-1	1163
sub-13	2	12	uncrossed	different	different	800	right	upper	left	lower	1	623	ses-1	1164
sub-13	2	13	uncrossed	same	same	300	right	lower	right	lower	1	578	ses-1	1165
sub-13	2	14	uncrossed	different	same	800	right	lower	left	lower	1	615	ses-1	1166
sub-13	2	15	uncrossed	same	different	100	right	lower	right	upper	1	575	ses-1	1167
sub-13	2	16	uncrossed	different	different	50	right	lower	left	upper	1	614	ses-1	1168
sub-13	2	17	uncrossed	different	same	300	right	lower	left	lower	1	571	ses-1	1169
sub-13	2	18	uncrossed	different	different	50	left	upper	right	lower	1	669	ses-1	1170
sub-13	2	19	uncrossed	same	same	100	left	lower	left	lower	1	458	ses-1	1171
sub-13	2	20	uncrossed	different	same	800	right	lower	left	lower	1	546	ses-1	1172
sub-13	2	21	uncrossed	different	different	50	left	upper	right	lower	1	592	ses-1	1173
sub-13	2	22	uncrossed	same	same	100	left	lower	left	lower	1	573	ses-1	1174
sub-13	2	23	uncrossed	different	different	50	left	lower	right	upper	1	580	ses-1	1175
sub-13	2	24	uncrossed	different	different	800	left	upper	right	lower	1	552	ses-1	1176
sub-13	2	25	uncrossed	same	different	50	left	upper	left	lower	1	475	ses-1	1177
sub-13	2	26	uncrossed	same	same	50	left	lower	left	lower	1	413	ses-1	1178
sub-13	2	27	uncrossed	same	same	50	right	lower	right	lower	1	968	ses-1	1179
sub-13	2	28	uncrossed	same	same	300	left	lower	left	lower	1	434	ses-1	1180
sub-13	2	29	uncrossed	different	different	800	left	lower	right	upper	1	385	ses-1	1181
sub-13	2	30	uncrossed	same	same	300	left	lower	left	lower	1	745	ses-1	1182
sub-13	2	31	uncrossed	same	same	50	left	lower	left	lower	1	375	ses-1	1183
sub-13	2	32	uncrossed	same	same	50	right	lower	right	lower	1	406	ses-1	1184
sub-13	2	33	uncrossed	different	different	50	left	upper	right	lower	1	523	ses-1	1185
sub-13	2	34	uncrossed	different	different	50	right	lower	left	upper	1	427	ses-1	1186
sub-13	2	35	uncrossed	same	different	300	right	upper	right	lower	1	439	ses-1	1187
sub-13	2	36	uncrossed	different	same	300	left	lower	right	lower	1	528	ses-1	1188
sub-13	2	37	uncrossed	different	different	300	left	lower	right	upper	1	446	ses-1	1189
sub-13	2	38	uncrossed	same	different	50	right	lower	right	upper	1	611	ses-1	1190
sub-13	2	39	uncrossed	different	different	100	right	lower	left	upper	1	457	ses-1	1191
sub-13	2	40	uncrossed	same	different	300	right	lower	right	upper	1	561	ses-1	1192
sub-13	2	41	uncrossed	different	different	50	left	upper	right	lower	1	685	ses-1	1193
sub-13	2	42	uncrossed	different	same	800	left	lower	right	lower	1	506	ses-1	1194
sub-13	2	43	uncrossed	same	different	300	right	lower	right	upper	1	572	ses-1	1195
sub-13	2	44	uncrossed	same	same	300	left	lower	left	lower	1	715	ses-1	1196
sub-13	2	45	uncrossed	same	different	300	right	upper	right	lower	1	404	ses-1	1197
sub-13	2	46	uncrossed	different	different	800	right	lower	left	upper	0	333	ses-1	1198
sub-13	2	47	uncrossed	different	different	800	left	lower	right	upper	1	602	ses-1	1199
sub-13	2	48	uncrossed	different	different	300	left	lower	right	upper	1	457	ses-1	1200
sub-13	2	49	uncrossed	different	different	300	left	upper	right	lower	1	692	ses-1	1201
sub-13	2	51	uncrossed	different	same	300	left	lower	right	lower	1	876	ses-1	1202
sub-13	2	52	uncrossed	different	same	50	right	lower	left	lower	1	523	ses-1	1203
sub-13	2	53	uncrossed	different	different	50	right	upper	left	lower	1	405	ses-1	1204
sub-13	2	54	uncrossed	different	different	100	left	upper	right	lower	1	642	ses-1	1205
sub-13	2	55	uncrossed	same	different	100	right	lower	right	upper	1	461	ses-1	1206
sub-13	2	56	uncrossed	same	different	800	left	upper	left	lower	1	593	ses-1	1207
sub-13	2	57	uncrossed	different	same	50	left	lower	right	lower	1	1161	ses-1	1208
sub-13	2	58	uncrossed	different	different	100	left	lower	right	upper	1	490	ses-1	1209
sub-13	2	59	uncrossed	different	different	50	left	lower	right	upper	1	692	ses-1	1210
sub-13	2	60	uncrossed	same	different	50	left	lower	left	upper	1	497	ses-1	1211
sub-13	2	61	uncrossed	different	different	300	right	lower	left	upper	1	478	ses-1	1212
sub-13	2	62	uncrossed	different	same	300	left	lower	right	lower	1	637	ses-1	1213
sub-13	2	63	uncrossed	same	different	50	right	upper	right	lower	1	643	ses-1	1214
sub-13	2	64	uncrossed	same	same	300	left	lower	left	lower	1	555	ses-1	1215
sub-13	2	65	uncrossed	different	same	800	right	lower	left	lower	1	472	ses-1	1216
sub-13	2	66	uncrossed	same	different	50	right	lower	right	upper	1	650	ses-1	1217
sub-13	2	67	uncrossed	same	same	50	right	lower	right	lower	1	481	ses-1	1218
sub-13	2	68	uncrossed	same	different	300	left	upper	left	lower	1	483	ses-1	1219
sub-13	2	69	uncrossed	different	same	300	left	lower	right	lower	1	407	ses-1	1220
sub-13	2	70	uncrossed	same	same	100	right	lower	right	lower	1	460	ses-1	1221
sub-13	2	71	uncrossed	same	different	300	right	upper	right	lower	1	416	ses-1	1222
sub-13	2	72	uncrossed	same	different	50	left	upper	left	lower	1	631	ses-1	1223
sub-13	2	73	uncrossed	different	different	300	left	upper	right	lower	1	558	ses-1	1224
sub-13	2	74	uncrossed	same	different	300	left	lower	left	upper	1	598	ses-1	1225
sub-13	2	75	uncrossed	same	different	300	left	lower	left	upper	1	444	ses-1	1226
sub-13	2	76	uncrossed	different	same	800	left	lower	right	lower	1	890	ses-1	1227
sub-13	2	77	uncrossed	different	different	800	left	upper	right	lower	1	660	ses-1	1228
sub-13	2	78	uncrossed	same	same	300	right	lower	right	lower	1	398	ses-1	1229
sub-13	2	79	uncrossed	same	different	100	right	lower	right	upper	1	350	ses-1	1230
sub-13	2	80	uncrossed	same	same	100	right	lower	right	lower	1	383	ses-1	1231
sub-13	2	81	uncrossed	same	same	300	left	lower	left	lower	1	565	ses-1	1232
sub-13	2	82	uncrossed	same	same	800	left	lower	left	lower	1	499	ses-1	1233
sub-13	2	83	uncrossed	different	same	100	left	lower	right	lower	1	470	ses-1	1234
sub-13	2	84	uncrossed	different	same	300	right	lower	left	lower	1	478	ses-1	1235
sub-13	2	85	uncrossed	same	different	100	left	lower	left	upper	1	579	ses-1	1236
sub-13	2	86	uncrossed	different	different	800	right	lower	left	upper	1	572	ses-1	1237
sub-13	2	87	uncrossed	different	same	50	right	lower	left	lower	1	1001	ses-1	1238
sub-13	2	88	uncrossed	different	different	300	right	lower	left	upper	1	372	ses-1	1239
sub-13	2	89	uncrossed	same	same	800	right	lower	right	lower	1	681	ses-1	1240
sub-13	2	90	uncrossed	same	same	800	right	lower	right	lower	1	530	ses-1	1241
sub-13	2	91	uncrossed	different	different	100	right	upper	left	lower	1	494	ses-1	1242
sub-13	2	92	uncrossed	different	same	50	right	lower	left	lower	1	523	ses-1	1243
sub-13	2	93	uncrossed	same	different	100	left	upper	left	lower	1	644	ses-1	1244
sub-13	2	94	uncrossed	different	same	100	right	lower	left	lower	1	574	ses-1	1245
sub-13	2	95	uncrossed	different	different	800	right	upper	left	lower	1	724	ses-1	1246
sub-13	2	96	uncrossed	same	same	800	left	lower	left	lower	1	593	ses-1	1247
sub-13	2	97	uncrossed	same	different	50	right	upper	right	lower	1	465	ses-1	1248
sub-13	2	98	uncrossed	same	same	300	right	lower	right	lower	1	476	ses-1	1249
sub-13	2	99	uncrossed	same	different	100	left	upper	left	lower	1	461	ses-1	1250
sub-13	2	100	uncrossed	same	same	100	right	lower	right	lower	1	349	ses-1	1251
sub-13	2	101	uncrossed	same	different	300	left	upper	left	lower	1	357	ses-1	1252
sub-13	2	102	uncrossed	same	different	50	left	lower	left	upper	1	291	ses-1	1253
sub-13	2	103	uncrossed	same	same	800	left	lower	left	lower	1	404	ses-1	1254
sub-13	2	104	uncrossed	different	same	50	right	lower	left	lower	1	628	ses-1	1255
